Packet number,Gyroscope X (deg/s),Gyroscope Y (deg/s),Gyroscope Z (deg/s),Accelerometer X (g),Accelerometer Y (g),Accelerometer Z (g),Magnetometer X (G),Magnetometer Y (G),Magnetometer Z (G)
0,-0.125,-0.0625,0.125,-0.02880859,0.01660156,1.01709,15.99951,15.99951,15.11475
2,-0.125,-0.25,0,0.002441406,-0.002441406,0.9736328,15.99951,15.99951,15.09375
4,-0.0625,-0.1875,0,0.006347656,0.01660156,0.9892578,15.99951,15.99951,15.09375
6,0.125,0,0,-0.04052734,0.03222656,1.013184,15.99951,15.99951,15.09375
8,-0.125,-0.125,0,-0.01708984,-0.002441406,0.9970703,15.99951,15.99951,15.12012
10,0,-0.125,0,-0.03271484,0.02050781,0.9853516,15.99951,15.99951,15.12012
12,0,0.0625,0.0625,-0.0009765625,0.03613281,0.9853516,15.99951,15.99951,15.12012
15,0,0,-0.1875,0.02197266,0.008789063,0.9970703,15.99951,15.99951,15.12012
18,0,-0.125,0,-0.02880859,0.008789063,1.020996,15.99951,15.99951,15.1123
20,0,-0.125,0.125,-0.04833984,0.01660156,1.013184,15.99951,15.99951,15.1123
22,-0.25,0,0,-0.02490234,-0.01025391,0.9853516,15.99951,15.99951,15.1123
24,0,0,0,0.006347656,-0.01416016,1.008789,15.99951,15.99951,15.1123
26,-0.1875,-0.1875,0,-0.01318359,0.01269531,0.9931641,15.99951,15.99951,15.1123
28,0,0,0.1875,-0.008789063,0.01269531,1.008789,15.99951,15.99951,15.1123
30,-0.0625,-0.25,0,-0.008789063,0.02050781,1.000977,15.99951,15.99951,15.12012
32,0,-0.125,0.0625,-0.02880859,0.01660156,0.9931641,15.99951,15.99951,15.12012
34,0,0,0,0.006347656,0.0009765625,1.004883,15.99951,15.99951,15.12012
36,0,0,0.125,-0.008789063,0.02441406,1.004883,15.99951,15.99951,15.12012
38,0,-0.25,0.3125,0.002441406,0.004882813,1.004883,15.99951,15.99951,15.12012
40,0,0.25,0.0625,-0.0009765625,0.03222656,1.000977,15.99951,15.99951,15.12012
42,0,-0.25,-0.125,-0.008789063,0.05224609,1.020996,15.99951,15.99951,15.12012
44,0,0,-0.0625,-0.04833984,0.02832031,1.000977,15.99951,15.99951,15.10156
46,0,-0.0625,0,-0.02880859,0.02832031,0.9970703,15.99951,15.99951,15.10156
48,0,0,0,-0.004882813,0.004882813,0.9853516,15.99951,15.99951,15.10156
51,0.0625,-0.0625,0,-0.01708984,-0.01416016,1.000977,15.99951,15.99951,15.11475
53,0.0625,-0.4375,0,-0.0009765625,-0.002441406,0.9892578,15.99951,15.99951,15.11475
55,-0.1875,0,0,-0.008789063,-0.002441406,1.013184,15.99951,15.99951,15.11475
57,-0.1875,0,0,-0.02490234,0.01269531,0.9814453,15.99951,15.99951,15.11475
59,-0.0625,-0.0625,0.1875,-0.004882813,-0.002441406,0.9736328,15.99951,15.99951,15.10449
61,0,0,0.125,-0.0009765625,0.02832031,0.9814453,15.99951,15.99951,15.10449
63,0.1875,-0.0625,0,-0.0009765625,-0.006347656,0.9814453,15.99951,15.99951,15.10449
65,0,-0.0625,0.1875,-0.03271484,0.03222656,1.036621,15.99951,15.99951,15.10693
67,0,-0.1875,0,-0.02880859,0.0009765625,1.000977,15.99951,15.99951,15.10693
69,-0.0625,0,-0.125,-0.01318359,0.02441406,0.9814453,15.99951,15.99951,15.10693
71,-0.0625,-0.1875,0,-0.01708984,0.0009765625,0.9970703,15.99951,15.99951,15.10693
73,0,0,0,-0.01708984,0.008789063,1.013184,15.99951,15.99951,15.12793
75,-0.0625,-0.25,-0.125,-0.03662109,0.004882813,1.004883,15.99951,15.99951,15.12793
77,-0.0625,-0.4375,-0.0625,-0.0009765625,-0.002441406,1.024902,15.99951,15.99951,15.12793
79,0,0.0625,0.0625,0.002441406,0.01660156,0.9931641,15.99951,15.99951,15.11768
81,-0.0625,-0.25,0,-0.03271484,-0.002441406,1.008789,15.99951,15.99951,15.11768
84,-0.125,0.0625,0,-0.0009765625,0.03222656,1.020996,15.99951,15.99951,15.11768
86,-0.125,-0.0625,-0.125,-0.0009765625,-0.002441406,1.000977,15.99951,15.99951,15.12012
88,0,-0.1875,-0.0625,-0.01708984,0.04052734,1.01709,15.99951,15.99951,15.12012
90,0,-0.125,-0.125,0.01025391,0.01660156,1.000977,15.99951,15.99951,15.12012
92,0.0625,0,0.0625,-0.008789063,0.02050781,0.9970703,15.99951,15.99951,15.12012
94,0,-0.125,0.1875,-0.008789063,-0.006347656,1.020996,15.99951,15.99951,15.11768
96,-0.1875,-0.0625,-0.125,-0.008789063,0.03222656,0.9736328,15.99951,15.99951,15.11768
98,-0.0625,0.0625,0.0625,-0.004882813,0.02050781,1.000977,15.99951,15.99951,15.11768
100,0,0,0.25,-0.01318359,0.0009765625,1.008789,15.99951,15.99951,15.1123
102,-0.375,-0.1875,0.0625,-0.02099609,0.03222656,0.9931641,15.99951,15.99951,15.1123
104,0,-0.1875,-0.125,-0.008789063,0.01660156,0.9614258,15.99951,15.99951,15.1123
106,-0.125,-0.125,0.0625,0.01806641,0.02050781,0.9853516,15.99951,15.99951,15.1123
108,-0.125,0,0.125,0.01806641,-0.006347656,0.9814453,15.99951,15.99951,15.11768
110,0,-0.1875,0.0625,-0.008789063,-0.006347656,0.9931641,15.99951,15.99951,15.11768
112,0,-0.0625,0,-0.02099609,0.004882813,0.9853516,15.99951,15.99951,15.11768
114,-0.1875,-0.25,0,0.002441406,0.02832031,1.008789,15.99951,15.99951,15.11768
117,0.0625,0,-0.125,-0.008789063,0.02441406,0.9892578,15.99951,15.99951,15.11768
119,-0.0625,-0.125,0,0.01416016,0.04052734,1.008789,15.99951,15.99951,15.11768
121,-0.0625,-0.25,0.0625,0.002441406,0.02832031,1.028809,15.99951,15.99951,15.12012
123,0.0625,-0.125,-0.1875,0.002441406,0.01660156,0.9931641,15.99951,15.99951,15.12012
125,-0.0625,-0.1875,0.0625,-0.004882813,0.02832031,1.01709,15.99951,15.99951,15.12012
127,-0.125,-0.3125,0,-0.0009765625,0.02050781,1.008789,15.99951,15.99951,15.12012
129,0.0625,-0.125,0.125,0.006347656,0.02441406,1.01709,15.99951,15.99951,15.10938
131,0,-0.125,0,-0.01708984,-0.002441406,1.004883,15.99951,15.99951,15.10938
133,-0.125,-0.125,0.125,-0.01708984,0.01660156,0.9931641,15.99951,15.99951,15.10938
135,-0.125,0.125,0,-0.01318359,0.01269531,1.020996,15.99951,15.99951,15.1123
137,0,-0.125,0,-0.0009765625,0.01269531,1.020996,15.99951,15.99951,15.1123
139,-0.0625,0,0,-0.0009765625,0.008789063,1.004883,15.99951,15.99951,15.1123
141,0,-0.25,-0.125,-0.01318359,0.008789063,0.9853516,15.99951,15.99951,15.1123
143,0,0.0625,0,0.01025391,0.0009765625,0.9931641,15.99951,15.99951,15.11768
145,-0.0625,-0.125,0.0625,-0.01708984,-0.002441406,0.9970703,15.99951,15.99951,15.11768
149,0,0,0,-0.02880859,0.03613281,0.9970703,15.99951,15.99951,15.11768
152,-0.125,-0.125,-0.0625,-0.01318359,-0.002441406,0.9814453,15.99951,15.99951,15.1123
154,-0.125,-0.0625,0,0.002441406,0.03613281,0.9814453,15.99951,15.99951,15.1123
156,0,0.0625,0,-0.0009765625,0.02832031,0.9970703,15.99951,15.99951,15.1123
158,-0.0625,0,0,-0.01318359,0.01269531,0.9697266,15.99951,15.99951,15.11475
160,0.0625,0,0.125,0.006347656,0.0009765625,0.9892578,15.99951,15.99951,15.11475
162,-0.125,-0.0625,0.125,0.002441406,-0.02197266,1.013184,15.99951,15.99951,15.11475
164,-0.125,-0.3125,0,-0.004882813,0.02832031,1.01709,15.99951,15.99951,15.11475
166,-0.25,-0.125,0,0.01806641,0.02050781,0.9853516,15.99951,15.99951,15.1123
168,0.0625,-0.1875,0.0625,0.006347656,0.0009765625,0.9853516,15.99951,15.99951,15.1123
170,-0.125,-0.125,0,0.01416016,0.004882813,0.9970703,15.99951,15.99951,15.1123
172,-0.125,-0.125,0.0625,0.01806641,0.02050781,1.013184,15.99951,15.99951,15.11475
174,0,-0.125,0.125,0.002441406,0.008789063,0.9892578,15.99951,15.99951,15.11475
176,0,-0.1875,-0.0625,-0.008789063,0.004882813,1.028809,15.99951,15.99951,15.11475
178,-0.0625,0,0.125,-0.02490234,-0.002441406,0.9892578,15.99951,15.99951,15.11475
180,0,-0.25,0,-0.0009765625,-0.006347656,0.9892578,15.99951,15.99951,15.11475
182,0.0625,0.0625,-0.0625,0.01025391,0.004882813,0.9736328,15.99951,15.99951,15.11475
185,-0.0625,-0.125,-0.0625,-0.01318359,0.01660156,0.9853516,15.99951,15.99951,15.11475
187,0.0625,-0.1875,0.1875,-0.01708984,0.02832031,1.020996,15.99951,15.99951,15.11768
189,-0.25,-0.125,0.0625,0.002441406,0.008789063,1.008789,15.99951,15.99951,15.11768
191,0.1875,-0.1875,-0.0625,-0.02490234,0.0009765625,0.9892578,15.99951,15.99951,15.11768
193,0,-0.25,0,-0.01708984,0.02050781,0.9931641,15.99951,15.99951,15.11768
195,0,-0.125,0,-0.008789063,0.0009765625,1.013184,15.99951,15.99951,15.11768
197,-0.0625,-0.1875,0,-0.02880859,-0.006347656,0.9931641,15.99951,15.99951,15.11768
199,0,0,0.0625,-0.04052734,0.004882813,1.008789,15.99951,15.99951,15.11768
201,-0.125,0,0.0625,-0.0009765625,0.0009765625,1.032715,15.99951,15.99951,15.11768
203,0,-0.0625,0.0625,-0.0009765625,0.01269531,0.9892578,15.99951,15.99951,15.11768
205,0.3125,0,0,0.006347656,-0.006347656,0.9970703,15.99951,15.99951,15.11768
207,0,0,-0.0625,-0.01708984,0.008789063,1.013184,15.99951,15.99951,15.11768
209,-0.1875,-0.0625,-0.0625,-0.01708984,-0.006347656,1.008789,15.99951,15.99951,15.11768
211,-0.125,-0.25,0.0625,0.006347656,0.01660156,0.9970703,15.99951,15.99951,15.11768
213,-0.125,0,0,-0.004882813,0.03222656,0.9853516,15.99951,15.99951,15.11475
215,0,0,0,0.01806641,-0.01025391,0.9853516,15.99951,15.99951,15.11475
218,0,-0.125,-0.125,-0.004882813,-0.002441406,1.004883,15.99951,15.99951,15.11475
220,0.0625,0,0,-0.02099609,0.03613281,1.020996,15.99951,15.99951,15.11475
222,-0.0625,-0.0625,0,-0.01318359,0.02441406,1.028809,15.99951,15.99951,15.1123
224,0,-0.25,0,0.01806641,0.02832031,0.9775391,15.99951,15.99951,15.1123
226,-0.0625,0,-0.1875,-0.01318359,-0.002441406,0.9892578,15.99951,15.99951,15.1123
228,0,0,-0.0625,0.02197266,0.02441406,0.9853516,15.99951,15.99951,15.11768
230,0.0625,0.25,0,-0.01318359,0.008789063,1.020996,15.99951,15.99951,15.11768
232,0.0625,0,0,-0.004882813,-0.002441406,1.000977,15.99951,15.99951,15.11768
234,-0.125,0,0.0625,0.002441406,-0.01416016,1.008789,15.99951,15.99951,15.11768
236,0,-0.125,0.0625,-0.01708984,-0.01416016,0.9853516,15.99951,15.99951,15.10449
238,0,0,0.0625,-0.0009765625,0.004882813,1.01709,15.99951,15.99951,15.10449
240,0,-0.0625,0,-0.02490234,0.01269531,1.028809,15.99951,15.99951,15.10449
242,-0.0625,-0.0625,0,-0.02099609,-0.002441406,0.9931641,15.99951,15.99951,15.1123
244,0,0.0625,-0.0625,-0.01708984,0.008789063,1.020996,15.99951,15.99951,15.1123
246,-0.0625,-0.0625,0.1875,0.01806641,-0.002441406,0.9736328,15.99951,15.99951,15.1123
248,-0.125,-0.25,0.0625,-0.01708984,0.03222656,0.9970703,15.99951,15.99951,15.11768
251,0,0,0,-0.02099609,0.008789063,0.9853516,15.99951,15.99951,15.11768
253,0,-0.1875,0.0625,-0.02490234,0.0009765625,0.9892578,15.99951,15.99951,15.11768
255,-0.125,0,0.0625,-0.02099609,0.01660156,1.004883,15.99951,15.99951,15.11768
257,0.0625,-0.0625,0,-0.0009765625,0.008789063,1.04834,15.99951,15.99951,15.10693
259,-0.25,0,-0.125,-0.02099609,0.0009765625,1.020996,15.99951,15.99951,15.10693
261,0,-0.1875,0.0625,-0.008789063,-0.01025391,1.01709,15.99951,15.99951,15.10693
263,-0.1875,-0.1875,0,0.02197266,0.01660156,1.013184,15.99951,15.99951,15.12012
265,-0.125,0,0,-0.01708984,0.02832031,0.9814453,15.99951,15.99951,15.12012
267,-0.3125,0,0,-0.02099609,-0.006347656,0.9853516,15.99951,15.99951,15.12012
269,-0.0625,-0.0625,0,-0.01708984,0.01269531,1.036621,15.99951,15.99951,15.12012
271,-0.1875,-0.125,0,-0.01708984,0.004882813,0.9775391,15.99951,15.99951,15.12012
273,-0.125,-0.125,0.125,0.01806641,0.02050781,1.004883,15.99951,15.99951,15.12012
275,-0.125,0,0.0625,0.01025391,0.008789063,0.9931641,15.99951,15.99951,15.12012
277,-0.1875,-0.0625,-0.1875,0.01025391,0.0009765625,0.9970703,15.99951,15.99951,15.10938
279,0,-0.1875,0.0625,-0.02490234,0.008789063,0.9853516,15.99951,15.99951,15.10938
282,0,-0.0625,-0.125,-0.01708984,0.02832031,0.9814453,15.99951,15.99951,15.10938
285,0,-0.25,0,0.006347656,0.004882813,1.01709,15.99951,15.99951,15.11768
287,-0.0625,0,0,0.02978516,0.008789063,0.9931641,15.99951,15.99951,15.11768
289,0,0.125,0,-0.02880859,0.01660156,0.9853516,15.99951,15.99951,15.11768
291,0,0,-0.0625,-0.01318359,0.0009765625,0.9970703,15.99951,15.99951,15.11768
293,-0.0625,-0.125,0.0625,-0.04052734,0.008789063,0.9931641,15.99951,15.99951,15.11768
295,0,-0.1875,0.0625,0.01025391,0.02832031,0.9736328,15.99951,15.99951,15.11768
297,0,-0.25,-0.125,-0.01708984,0.0009765625,0.9814453,15.99951,15.99951,15.11768
299,0.125,-0.1875,0,0.03808594,0.01269531,0.9658203,15.99951,15.99951,15.12256
301,0,-0.0625,0,-0.01708984,0.01269531,0.9931641,15.99951,15.99951,15.12256
303,0,0,-0.125,-0.01318359,0.01660156,1.000977,15.99951,15.99951,15.12256
305,0.0625,0,0,-0.008789063,0.004882813,0.9931641,15.99951,15.99951,15.11475
307,0,-0.0625,-0.0625,-0.02490234,0.004882813,0.9892578,15.99951,15.99951,15.11475
309,-0.125,0,0.125,-0.01318359,-0.02197266,0.9892578,15.99951,15.99951,15.11475
311,0,0,0,0.002441406,0.008789063,0.9931641,15.99951,15.99951,15.11475
313,0.0625,0,0,0.006347656,-0.02197266,0.9892578,15.99951,15.99951,15.1123
315,-0.0625,0.125,0.0625,-0.0009765625,0.01269531,1.000977,15.99951,15.99951,15.1123
318,-0.0625,-0.0625,-0.0625,0.002441406,0.03613281,1.020996,15.99951,15.99951,15.1123
320,-0.0625,-0.125,0,0.01025391,0.008789063,0.9931641,15.99951,15.99951,15.11768
322,0,-0.125,-0.125,0.002441406,0.02050781,0.9931641,15.99951,15.99951,15.11768
324,0,0.0625,0,0.01806641,0.0009765625,0.9736328,15.99951,15.99951,15.11768
326,0.0625,0,-0.0625,-0.008789063,0.01269531,0.9853516,15.99951,15.99951,15.11768
328,-0.125,0.0625,0,0.002441406,0.0009765625,1.008789,15.99951,15.99951,15.10449
330,-0.1875,-0.1875,0,-0.008789063,0.01269531,1.020996,15.99951,15.99951,15.10449
332,0,-0.1875,-0.125,-0.004882813,0.004882813,1.000977,15.99951,15.99951,15.10449
334,-0.0625,-0.1875,0.125,0.002441406,0.0009765625,0.9931641,15.99951,15.99951,15.10449
336,0.0625,-0.0625,0,-0.01708984,-0.01416016,0.9892578,15.99951,15.99951,15.10449
338,0,0,0,0.02587891,0.01269531,0.9970703,15.99951,15.99951,15.10449
340,-0.0625,0,0.125,-0.01318359,0.01269531,1.000977,15.99951,15.99951,15.12012
342,0,-0.3125,0.0625,-0.008789063,-0.006347656,0.9892578,15.99951,15.99951,15.12012
344,-0.0625,-0.1875,-0.0625,-0.02099609,0.04443359,0.9853516,15.99951,15.99951,15.12012
346,-0.1875,0,-0.125,-0.01708984,0.01269531,1.020996,15.99951,15.99951,15.12012
348,0,0.1875,0.0625,-0.004882813,0.004882813,1.024902,15.99951,15.99951,15.1123
351,0.0625,0.1875,0,-0.008789063,0.01660156,1.000977,15.99951,15.99951,15.1123
353,-0.0625,-0.0625,0,-0.008789063,0.02441406,1.004883,15.99951,15.99951,15.1123
355,-0.0625,0,0.125,0.006347656,0.02050781,1.013184,15.99951,15.99951,15.10693
357,-0.125,-0.0625,0.0625,0.006347656,0.05224609,0.9931641,15.99951,15.99951,15.10693
359,-0.1875,-0.1875,-0.0625,0.01806641,-0.006347656,1.000977,15.99951,15.99951,15.10693
361,-0.1875,0.0625,0,0.006347656,0.01660156,1.024902,15.99951,15.99951,15.10693
363,-0.0625,-0.1875,0.0625,-0.01708984,0.01269531,1.01709,15.99951,15.99951,15.11475
365,-0.0625,-0.0625,-0.0625,-0.02099609,0.03613281,0.9931641,15.99951,15.99951,15.11475
367,-0.3125,-0.1875,-0.0625,-0.008789063,0.02441406,0.9853516,15.99951,15.99951,15.11475
369,0.125,-0.1875,0,0.01025391,-0.002441406,0.9614258,15.99951,15.99951,15.12012
371,-0.125,0.1875,0,0.002441406,0.004882813,1.000977,15.99951,15.99951,15.12012
373,0.1875,-0.0625,0.0625,0.006347656,0.01660156,0.9853516,15.99951,15.99951,15.12012
375,0,-0.125,0,-0.01318359,0.008789063,0.9892578,15.99951,15.99951,15.11768
377,-0.25,-0.1875,0.0625,-0.02490234,0.05224609,0.9853516,15.99951,15.99951,15.11768
379,0.0625,-0.1875,0,0.01025391,0.02441406,0.9658203,15.99951,15.99951,15.11768
381,0,-0.1875,0,-0.004882813,0.01660156,0.9892578,15.99951,15.99951,15.11768
384,0.25,0,-0.1875,0.04199219,0.0009765625,1.008789,15.99951,15.99951,15.1123
386,0.0625,0.125,0,-0.03662109,0.01660156,1.008789,15.99951,15.99951,15.1123
388,0,-0.125,-0.0625,-0.02099609,0.02050781,0.9892578,15.99951,15.99951,15.1123
390,0,0.125,0,-0.0009765625,0.03613281,0.9892578,15.99951,15.99951,15.11475
392,-0.125,-0.0625,0,-0.03271484,0.02050781,1.004883,15.99951,15.99951,15.11475
394,-0.0625,-0.3125,0.125,-0.004882813,-0.006347656,0.9931641,15.99951,15.99951,15.11475
396,0.1875,0,0,-0.02099609,0.01269531,1.004883,15.99951,15.99951,15.11475
398,0.125,-0.0625,0.125,-0.02880859,0.03222656,1.028809,15.99951,15.99951,15.11475
400,0.1875,0.0625,-0.0625,-0.04443359,0.0009765625,1.036621,15.99951,15.99951,15.11475
402,-0.0625,-0.125,0,0.006347656,0.008789063,1.000977,15.99951,15.99951,15.11475
404,-0.0625,0,0,0.01416016,0.02832031,0.9853516,15.99951,15.99951,15.12256
406,0,-0.0625,0.125,0.002441406,0.0009765625,1.008789,15.99951,15.99951,15.12256
408,0,0.125,0,-0.02490234,-0.002441406,1.004883,15.99951,15.99951,15.12256
410,0,-0.25,0.1875,0.01416016,0.004882813,1.032715,15.99951,15.99951,15.10449
412,0,-0.125,0,-0.0009765625,0.01660156,1.013184,15.99951,15.99951,15.10449
416,0,-0.0625,-0.0625,0.002441406,-0.002441406,0.9658203,15.99951,15.99951,15.10449
419,0,0,0.1875,-0.0009765625,0.004882813,1.004883,15.99951,15.99951,15.10449
421,0,0,0,-0.02490234,0.03222656,1.008789,15.99951,15.99951,15.11768
423,0,-0.0625,-0.0625,-0.04052734,0.01660156,0.9853516,15.99951,15.99951,15.11768
425,0,-0.1875,0.125,-0.02490234,0.02050781,0.9931641,15.99951,15.99951,15.11768
427,-0.0625,0,0,-0.02490234,0.0009765625,1.028809,15.99951,15.99951,15.10938
429,-0.0625,-0.0625,0,0.01806641,0.03222656,1.004883,15.99951,15.99951,15.10938
431,-0.125,0,0,-0.02099609,0.01660156,1.008789,15.99951,15.99951,15.10938
433,-0.125,0.25,0,-0.01318359,0.02832031,1.008789,15.99951,15.99951,15.1123
435,0.0625,-0.3125,0.125,0.002441406,0.02832031,1.008789,15.99951,15.99951,15.1123
437,-0.125,0,0.125,0.04589844,0.008789063,0.9931641,15.99951,15.99951,15.1123
439,-0.3125,-0.0625,-0.0625,-0.004882813,0.01660156,1.024902,15.99951,15.99951,15.1123
441,0,-0.25,0.1875,0.02197266,-0.01416016,0.9970703,15.99951,15.99951,15.11768
443,0.0625,-0.0625,0,-0.04833984,0.03222656,1.000977,15.99951,15.99951,15.11768
445,0,0,0,-0.008789063,0.01269531,1.000977,15.99951,15.99951,15.11768
447,-0.25,-0.125,0,-0.0009765625,0.02050781,1.028809,15.99951,15.99951,15.11768
449,0.0625,0,0.0625,-0.01318359,0.02050781,1.032715,15.99951,15.99951,15.11768
452,-0.125,-0.3125,0,0.002441406,-0.006347656,1.004883,15.99951,15.99951,15.11768
454,-0.1875,0.3125,0.125,0.01806641,0.01269531,0.9853516,15.99951,15.99951,15.11768
456,0,0.125,-0.0625,-0.02490234,0.02050781,0.9970703,15.99951,15.99951,15.10449
458,0.0625,-0.0625,0,-0.01318359,0.01269531,1.020996,15.99951,15.99951,15.10449
460,-0.125,-0.25,-0.125,-0.02099609,0.06396484,1.008789,15.99951,15.99951,15.10449
462,-0.0625,-0.0625,-0.0625,0.002441406,0.02050781,1.004883,15.99951,15.99951,15.10449
464,0.125,-0.3125,0,0.01416016,-0.006347656,0.9736328,15.99951,15.99951,15.10449
466,-0.0625,0,0.0625,-0.008789063,0.004882813,0.9658203,15.99951,15.99951,15.10449
468,0,0,0,-0.0009765625,0.0009765625,1.01709,15.99951,15.99951,15.11475
470,-0.125,0,0,0.006347656,0.004882813,1.004883,15.99951,15.99951,15.11475
472,-0.125,-0.0625,0,-0.0009765625,0.01269531,0.9892578,15.99951,15.99951,15.11475
474,0,0,0.0625,-0.02880859,0.004882813,1.028809,15.99951,15.99951,15.11475
476,0.25,0,-0.25,-0.01708984,0.02441406,0.9970703,15.99951,15.99951,15.10693
478,0,0,0,0.006347656,0.0009765625,1.000977,15.99951,15.99951,15.10693
480,0,-0.25,0,-0.0009765625,0.03613281,0.9775391,15.99951,15.99951,15.10693
482,0,-0.25,0,-0.01318359,0.03613281,0.9970703,15.99951,15.99951,15.10938
485,0,-0.125,0.0625,-0.0009765625,-0.02197266,1.036621,15.99951,15.99951,15.10938
487,0,-0.0625,0,0.01025391,0.02050781,0.9892578,15.99951,15.99951,15.10938
489,-0.125,0,-0.125,-0.01318359,0.02441406,1.000977,15.99951,15.99951,15.10938
491,-0.0625,0.0625,0,-0.01318359,0.0009765625,1.000977,15.99951,15.99951,15.11475
493,0,0,0,-0.004882813,0.0009765625,1.000977,15.99951,15.99951,15.11475
495,0,-0.125,0.0625,0.002441406,0.0009765625,1.032715,15.99951,15.99951,15.11475
497,0,-0.0625,0,-0.02490234,0.01660156,0.9892578,15.99951,15.99951,15.10938
499,0.0625,-0.125,0.0625,0.01025391,0.02050781,0.9931641,15.99951,15.99951,15.10938
501,0,-0.125,0,-0.008789063,0.01660156,1.000977,15.99951,15.99951,15.10938
503,0.3125,0.125,0,-0.02490234,0.01660156,0.9775391,15.99951,15.99951,15.10449
505,0,-0.0625,0,-0.0009765625,-0.01416016,1.024902,15.99951,15.99951,15.10449
507,-0.0625,-0.125,0,-0.02490234,0.004882813,1.000977,15.99951,15.99951,15.10449
509,-0.0625,0,-0.125,0.01416016,0.01269531,0.9853516,15.99951,15.99951,15.10449
511,-0.0625,-0.375,0.0625,-0.004882813,0.004882813,1.000977,15.99951,15.99951,15.12012
513,0,0,0,-0.004882813,0.008789063,1.008789,15.99951,15.99951,15.12012
515,-0.0625,-0.25,0.125,-0.008789063,0.004882813,1.000977,15.99951,15.99951,15.12012
518,-0.125,0.0625,-0.25,-0.03271484,0.01269531,1.013184,15.99951,15.99951,15.10449
520,0,-0.1875,0,-0.04443359,0.004882813,1.024902,15.99951,15.99951,15.10449
522,0,-0.1875,0.0625,-0.0009765625,0.01660156,1.020996,15.99951,15.99951,15.10449
524,-0.0625,0,-0.125,0.01025391,0.02832031,0.9970703,15.99951,15.99951,15.12012
526,0,0,0,-0.0009765625,-0.002441406,1.008789,15.99951,15.99951,15.12012
528,0,-0.1875,0.0625,0.01025391,0.0009765625,0.9931641,15.99951,15.99951,15.12012
530,-0.1875,0,-0.0625,0.002441406,0.004882813,0.9970703,15.99951,15.99951,15.12012
532,-0.0625,-0.125,0,0.02197266,0.01269531,1.008789,15.99951,15.99951,15.10938
534,0.0625,-0.25,-0.125,-0.02099609,0.01660156,1.013184,15.99951,15.99951,15.10938
536,-0.0625,-0.0625,0.125,0.01025391,-0.01025391,0.9814453,15.99951,15.99951,15.10938
538,-0.0625,0.0625,0.125,0.002441406,-0.006347656,0.9736328,15.99951,15.99951,15.10693
540,-0.0625,-0.125,0,-0.03271484,0.008789063,1.004883,15.99951,15.99951,15.10693
542,0,0,-0.0625,-0.01708984,0.02050781,1.004883,15.99951,15.99951,15.10693
544,-0.1875,0,0,-0.03271484,0.004882813,1.01709,15.99951,15.99951,15.10693
546,0,-0.125,0.125,-0.008789063,0.02441406,1.004883,15.99951,15.99951,15.09912
549,-0.0625,-0.0625,0,-0.004882813,-0.03369141,1.04834,15.99951,15.99951,15.09912
552,0,0.0625,-0.125,-0.01318359,-0.006347656,0.9775391,15.99951,15.99951,15.09912
554,-0.125,-0.125,-0.125,-0.02490234,0.0009765625,0.9970703,15.99951,15.99951,15.11475
556,-0.0625,-0.125,0.0625,-0.004882813,0.0009765625,1.020996,15.99951,15.99951,15.11475
558,-0.0625,-0.1875,0.125,0.02197266,0.03222656,0.9970703,15.99951,15.99951,15.11475
560,-0.0625,-0.1875,-0.0625,-0.0009765625,0.02832031,1.000977,15.99951,15.99951,15.1123
562,-0.125,0,0,-0.0009765625,0.004882813,1.024902,15.99951,15.99951,15.1123
564,0,0,0,0.002441406,0.03222656,1.004883,15.99951,15.99951,15.1123
566,0.125,-0.1875,-0.0625,-0.01708984,0.004882813,1.024902,15.99951,15.99951,15.1123
568,-0.3125,-0.125,-0.0625,0.01025391,0.03613281,1.028809,15.99951,15.99951,15.11475
570,-0.125,-0.0625,0,-0.01708984,-0.01025391,0.9736328,15.99951,15.99951,15.11475
572,-0.0625,-0.125,0.0625,0.03369141,0.01269531,0.9970703,15.99951,15.99951,15.11475
574,0,0,-0.125,-0.004882813,0.008789063,1.004883,15.99951,15.99951,15.12012
576,0.0625,0,0,-0.02490234,0.008789063,1.013184,15.99951,15.99951,15.12012
578,-0.0625,-0.3125,0.0625,-0.02880859,0.01660156,1.008789,15.99951,15.99951,15.12012
580,-0.0625,0,0.25,-0.008789063,0.004882813,1.01709,15.99951,15.99951,15.12012
582,0,-0.125,0,-0.008789063,0.01269531,1.004883,15.99951,15.99951,15.1123
585,0.0625,0,-0.125,0.02197266,-0.006347656,0.9970703,15.99951,15.99951,15.1123
587,0.0625,-0.25,-0.0625,-0.02099609,-0.01806641,0.9931641,15.99951,15.99951,15.1123
589,0,-0.125,0.125,-0.02099609,0.0009765625,0.9970703,15.99951,15.99951,15.10938
591,-0.1875,-0.1875,0.125,0.01806641,0.01660156,1.01709,15.99951,15.99951,15.10938
593,-0.125,-0.125,-0.125,-0.0009765625,0.004882813,0.9736328,15.99951,15.99951,15.10938
595,-0.0625,0,0.0625,-0.008789063,0.03613281,0.9536133,15.99951,15.99951,15.11768
597,0.0625,0.125,0.0625,-0.008789063,-0.006347656,1.020996,15.99951,15.99951,15.11768
599,0,0,0.125,-0.008789063,-0.002441406,1.01709,15.99951,15.99951,15.11768
601,-0.125,0,0,-0.008789063,0.02050781,0.9931641,15.99951,15.99951,15.11768
603,-0.125,-0.1875,0.0625,-0.02880859,0.02050781,1.004883,15.99951,15.99951,15.1123
605,-0.125,0.125,0,0.02197266,0.02050781,1.020996,15.99951,15.99951,15.1123
607,0.25,0,-0.0625,0.002441406,0.01660156,0.9775391,15.99951,15.99951,15.1123
609,-0.25,0,0,-0.02099609,0.01660156,0.9931641,15.99951,15.99951,15.1123
611,0,-0.125,0.125,-0.0009765625,0.01660156,0.9931641,15.99951,15.99951,15.1123
613,0.1875,-0.0625,0,0.002441406,-0.002441406,0.9892578,15.99951,15.99951,15.1123
615,-0.0625,-0.0625,-0.1875,-0.03271484,0.01660156,0.9970703,15.99951,15.99951,15.1123
618,-0.0625,-0.125,0,0.01025391,0.01660156,1.000977,15.99951,15.99951,15.11475
620,-0.125,0,0.0625,0.01416016,0.008789063,1.008789,15.99951,15.99951,15.11475
622,-0.1875,-0.125,0.0625,0.002441406,0.03613281,0.9931641,15.99951,15.99951,15.11475
624,0.0625,-0.1875,0,-0.02099609,0.04443359,1.000977,15.99951,15.99951,15.1123
626,-0.25,0.25,0.1875,-0.03271484,-0.01025391,1.008789,15.99951,15.99951,15.1123
628,-0.125,0,0,0.02197266,-0.002441406,1.004883,15.99951,15.99951,15.1123
630,-0.1875,0.0625,0,0.01025391,-0.01416016,1.008789,15.99951,15.99951,15.1123
632,-0.25,-0.1875,0,-0.008789063,0.004882813,1.000977,15.99951,15.99951,15.1123
634,0,0,0,-0.02490234,0.01660156,0.9853516,15.99951,15.99951,15.1123
636,0.0625,-0.125,-0.0625,-0.04443359,0.004882813,1.004883,15.99951,15.99951,15.1123
638,-0.125,0,-0.0625,0.002441406,-0.002441406,1.008789,15.99951,15.99951,15.1123
640,0,0,0,0.02978516,0.02832031,0.9853516,15.99951,15.99951,15.1123
642,0.0625,-0.1875,0,-0.008789063,0.01660156,1.008789,15.99951,15.99951,15.1123
644,-0.3125,0,-0.0625,0.02978516,0.04052734,1.008789,15.99951,15.99951,15.10449
646,0,0,-0.1875,-0.01318359,0.01269531,1.020996,15.99951,15.99951,15.10449
648,-0.125,-0.0625,-0.0625,-0.03662109,-0.01416016,1.01709,15.99951,15.99951,15.10449
651,-0.3125,-0.125,0.125,0.002441406,-0.01806641,1.020996,15.99951,15.99951,15.09375
653,-0.125,0,0,0.002441406,0.02050781,1.008789,15.99951,15.99951,15.09375
655,0.125,0,0,-0.02099609,0.01269531,0.9775391,15.99951,15.99951,15.09375
657,0,0.0625,0.0625,-0.02880859,0.01269531,1.004883,15.99951,15.99951,15.09375
659,0,0,-0.125,-0.02490234,0.01269531,1.024902,15.99951,15.99951,15.10938
661,-0.0625,-0.125,0,-0.04052734,-0.01806641,0.9853516,15.99951,15.99951,15.10938
663,-0.1875,-0.125,0.0625,-0.01708984,-0.01025391,0.9892578,15.99951,15.99951,15.10938
665,0,0,0.0625,0.02197266,0.01660156,0.9853516,15.99951,15.99951,15.11768
667,0,-0.1875,0,-0.01708984,0.008789063,1.004883,15.99951,15.99951,15.11768
669,-0.125,-0.1875,-0.0625,-0.02490234,0.03222656,0.9853516,15.99951,15.99951,15.11768
671,0.0625,0.25,0.0625,-0.02880859,0.03222656,0.9775391,15.99951,15.99951,15.11768
673,0,-0.1875,0,-0.01708984,0.02050781,0.9775391,15.99951,15.99951,15.11768
675,-0.0625,-0.125,-0.3125,0.02197266,0.01269531,1.008789,15.99951,15.99951,15.11768
677,0,-0.0625,0,0.02978516,0.01660156,1.013184,15.99951,15.99951,15.11768
679,-0.125,0,0,-0.004882813,0.004882813,0.9418945,15.99951,15.99951,15.11768
683,0.0625,-0.1875,0.0625,-0.008789063,-0.006347656,0.9970703,15.99951,15.99951,15.11768
686,-0.0625,0.125,0,0.002441406,0.02832031,1.024902,15.99951,15.99951,15.11768
688,-0.125,0.0625,-0.0625,-0.02099609,0.0009765625,1.036621,15.99951,15.99951,15.10449
690,-0.0625,-0.1875,0,0.01416016,-0.002441406,1.008789,15.99951,15.99951,15.10449
692,-0.0625,-0.0625,-0.0625,0.01025391,0.01269531,1.008789,15.99951,15.99951,15.10449
694,0,-0.125,0,-0.02490234,-0.01806641,1.004883,15.99951,15.99951,15.10449
696,0,0.125,-0.125,-0.01708984,0.01269531,0.9614258,15.99951,15.99951,15.1123
698,-0.0625,0,0,-0.04052734,-0.002441406,1.020996,15.99951,15.99951,15.1123
700,0,-0.25,0,-0.01708984,0.008789063,1.013184,15.99951,15.99951,15.1123
702,-0.125,-0.125,0.0625,0.01806641,0.01269531,0.9853516,15.99951,15.99951,15.10938
704,0.125,0,0,-0.02099609,0.01660156,0.9814453,15.99951,15.99951,15.10938
706,0,0.0625,0,-0.01318359,0.03613281,1.020996,15.99951,15.99951,15.10938
708,-0.125,0,0,-0.004882813,0.0009765625,1.020996,15.99951,15.99951,15.10938
710,-0.125,-0.125,0,-0.07226563,0.01269531,1.036621,15.99951,15.99951,15.11475
712,-0.1875,-0.1875,-0.25,-0.004882813,0.01660156,0.9931641,15.99951,15.99951,15.11475
714,-0.0625,-0.0625,0,0.006347656,0.02050781,0.9853516,15.99951,15.99951,15.11475
716,0,0,0,-0.004882813,0.008789063,1.013184,15.99951,15.99951,15.11475
719,0,0,0,-0.0009765625,-0.002441406,1.004883,15.99951,15.99951,15.11475
721,0,0.0625,0,-0.01708984,0.0009765625,0.9697266,15.99951,15.99951,15.11475
723,0,-0.25,0.0625,-0.02490234,0.03222656,1.000977,15.99951,15.99951,15.10693
725,-0.125,-0.1875,0.125,-0.01708984,0.01269531,0.9814453,15.99951,15.99951,15.10693
727,0,0,-0.0625,0.002441406,-0.01025391,0.9853516,15.99951,15.99951,15.10693
729,0,0,0,-0.01318359,0.008789063,1.087891,15.99951,15.99951,15.10693
731,-0.125,0,0,-0.004882813,0.02832031,1.036621,15.99951,15.99951,15.10156
733,0,-0.1875,0.0625,-0.02099609,0.0009765625,0.9970703,15.99951,15.99951,15.10156
735,0,-0.0625,0.0625,-0.008789063,0.01269531,0.9814453,15.99951,15.99951,15.10156
737,0,-0.0625,0,-0.0009765625,0.01660156,1.032715,15.99951,15.99951,15.11475
739,-0.0625,-0.125,0,-0.01708984,0.008789063,0.9814453,15.99951,15.99951,15.11475
741,0.0625,0.25,-0.0625,-0.008789063,0.02050781,0.9853516,15.99951,15.99951,15.11475
743,0.0625,-0.1875,-0.0625,-0.02490234,0.0009765625,1.024902,15.99951,15.99951,15.11475
745,0,-0.125,0,-0.004882813,0.02441406,0.9931641,15.99951,15.99951,15.11475
747,0,-0.125,-0.125,0.01025391,0.0009765625,1.020996,15.99951,15.99951,15.11475
749,0,-0.125,0.1875,0.01416016,0.0009765625,1.04834,15.99951,15.99951,15.11475
752,0,0,0,0.01806641,0.01660156,0.9970703,15.99951,15.99951,15.11768
754,0.0625,0.0625,0.125,0.002441406,0.02050781,1.013184,15.99951,15.99951,15.11768
756,-0.125,-0.125,0.1875,-0.02099609,0.008789063,0.9970703,15.99951,15.99951,15.11768
758,-0.0625,-0.125,0,-0.0009765625,0.008789063,1.008789,15.99951,15.99951,15.12012
760,0.125,-0.1875,0.0625,-0.02099609,0.01660156,1.004883,15.99951,15.99951,15.12012
762,-0.125,-0.1875,0.0625,0.01416016,0.01660156,1.000977,15.99951,15.99951,15.12012
764,0.0625,-0.3125,0,0.002441406,-0.02587891,0.9970703,15.99951,15.99951,15.12012
766,0.1875,0.125,-0.0625,-0.004882813,-0.002441406,0.9853516,15.99951,15.99951,15.10156
768,-0.25,-0.125,0,0.002441406,0.01660156,1.01709,15.99951,15.99951,15.10156
770,-0.0625,0,0.0625,-0.01318359,0.0009765625,1.000977,15.99951,15.99951,15.10156
772,0.125,-0.1875,-0.0625,0.01025391,0.0009765625,1.013184,15.99951,15.99951,15.12012
774,0,0.0625,0,0.01806641,0.004882813,0.9970703,15.99951,15.99951,15.12012
776,0,0,-0.0625,-0.01318359,0.008789063,0.9814453,15.99951,15.99951,15.12012
778,-0.0625,0.1875,0.0625,-0.01318359,0.02441406,1.01709,15.99951,15.99951,15.11475
780,-0.0625,-0.3125,-0.0625,-0.008789063,0.0009765625,0.9892578,15.99951,15.99951,15.11475
782,0.0625,-0.125,-0.125,-0.01318359,0.01660156,0.9697266,15.99951,15.99951,15.11475
785,-0.3125,-0.375,0,-0.01318359,0.01660156,1.000977,15.99951,15.99951,15.11475
787,-0.125,0.0625,0,-0.02099609,0.02441406,1.008789,15.99951,15.99951,15.1123
789,0.0625,0,0,-0.0009765625,0.01269531,1.013184,15.99951,15.99951,15.1123
791,0,0.3125,0.0625,-0.008789063,0.01269531,0.9892578,15.99951,15.99951,15.1123
793,-0.1875,-0.1875,0,-0.03271484,0.008789063,0.9736328,15.99951,15.99951,15.09375
795,0,0,0.0625,-0.01318359,0.004882813,0.9970703,15.99951,15.99951,15.09375
797,0,0,0,-0.0009765625,-0.006347656,0.9970703,15.99951,15.99951,15.09375
799,0,0,-0.1875,-0.008789063,0.0009765625,0.9931641,15.99951,15.99951,15.09375
801,-0.0625,-0.125,0,-0.008789063,0.02832031,1.020996,15.99951,15.99951,15.10938
803,-0.1875,-0.0625,0,-0.02880859,0.01269531,1.004883,15.99951,15.99951,15.10938
805,-0.125,-0.1875,0,-0.008789063,-0.01025391,1.004883,15.99951,15.99951,15.10938
807,0,-0.1875,0.1875,-0.02880859,0.01269531,0.9814453,15.99951,15.99951,15.10938
809,0,0,-0.0625,-0.02099609,0.01269531,1.004883,15.99951,15.99951,15.10938
811,0,-0.0625,-0.0625,-0.0009765625,0.01269531,1.008789,15.99951,15.99951,15.10938
813,-0.25,-0.1875,-0.0625,-0.01318359,0.02441406,1.028809,15.99951,15.99951,15.10449
816,-0.125,-0.3125,0.0625,-0.004882813,0.01660156,1.004883,15.99951,15.99951,15.10449
819,-0.25,-0.125,0,-0.01708984,-0.002441406,0.9814453,15.99951,15.99951,15.10449
821,-0.1875,0,0,-0.0009765625,0.008789063,1.013184,15.99951,15.99951,15.10449
823,0,0,0,-0.008789063,0.01269531,0.9892578,15.99951,15.99951,15.1123
825,0,0,0.1875,-0.02099609,0.01660156,1.008789,15.99951,15.99951,15.1123
827,0,-0.375,0,0.01416016,0.0009765625,1.004883,15.99951,15.99951,15.1123
829,-0.3125,-0.125,-0.0625,-0.02880859,0.05224609,1.028809,15.99951,15.99951,15.10449
831,0,0.125,0,0.01025391,0.02050781,0.9853516,15.99951,15.99951,15.10449
833,0.0625,-0.125,0,-0.008789063,0.01660156,1.004883,15.99951,15.99951,15.10449
835,0,-0.1875,0.0625,-0.01318359,-0.01806641,0.9970703,15.99951,15.99951,15.10449
837,0.125,0,0,-0.008789063,-0.002441406,1.024902,15.99951,15.99951,15.10693
839,-0.0625,-0.125,0.125,-0.02099609,0.004882813,1.024902,15.99951,15.99951,15.10693
841,-0.1875,-0.0625,0,-0.004882813,0.02832031,0.9853516,15.99951,15.99951,15.10693
843,0,-0.375,0,0.01025391,0.01269531,1.000977,15.99951,15.99951,15.11475
845,-0.1875,-0.0625,0,0.01025391,0.0009765625,0.9892578,15.99951,15.99951,15.11475
847,0,0.125,0.0625,0.01806641,0.02832031,0.9931641,15.99951,15.99951,15.11475
849,0,0.0625,-0.25,-0.03271484,-0.002441406,0.9931641,15.99951,15.99951,15.12012
852,0.0625,-0.3125,0,-0.008789063,0.0009765625,1.008789,15.99951,15.99951,15.12012
854,-0.25,0.0625,-0.0625,-0.0009765625,0.02832031,1.000977,15.99951,15.99951,15.12012
856,0,-0.25,-0.125,-0.008789063,0.008789063,1.000977,15.99951,15.99951,15.12012
858,0.1875,0,0.0625,-0.008789063,0.02441406,0.9853516,15.99951,15.99951,15.11768
860,0,-0.1875,-0.0625,-0.02880859,0.01660156,1.008789,15.99951,15.99951,15.11768
862,0,-0.3125,0.0625,-0.01708984,0.02441406,1.020996,15.99951,15.99951,15.11768
864,-0.1875,0,0.0625,-0.02099609,0.01660156,0.9853516,15.99951,15.99951,15.1123
866,-0.0625,-0.3125,0,0.01416016,0.02441406,0.9931641,15.99951,15.99951,15.1123
868,0,-0.1875,0.0625,-0.01708984,0.01660156,0.9697266,15.99951,15.99951,15.1123
870,0,-0.0625,0.375,-0.0009765625,0.02050781,0.9775391,15.99951,15.99951,15.1123
872,0,0,-0.0625,-0.008789063,0.01660156,1.004883,15.99951,15.99951,15.1123
874,-0.0625,-0.125,0,0.01025391,0.008789063,0.9697266,15.99951,15.99951,15.1123
876,-0.125,0,0.0625,-0.004882813,0.004882813,0.9853516,15.99951,15.99951,15.1123
878,0.0625,0,-0.125,0.002441406,0.004882813,1.000977,15.99951,15.99951,15.11768
880,0,-0.0625,0.1875,0.002441406,0.02050781,0.9736328,15.99951,15.99951,15.11768
882,-0.0625,0.0625,0,-0.03662109,0.01660156,1.024902,15.99951,15.99951,15.11768
885,-0.125,0.0625,-0.0625,-0.004882813,0.004882813,1.013184,15.99951,15.99951,15.1123
887,-0.125,-0.125,0,-0.01318359,0.03222656,1.01709,15.99951,15.99951,15.1123
889,0,-0.25,0,0.002441406,0.01660156,1.008789,15.99951,15.99951,15.1123
891,-0.125,0,-0.125,-0.01318359,0.03613281,0.9853516,15.99951,15.99951,15.1123
893,0.0625,0,0.0625,-0.01708984,0.008789063,1.000977,15.99951,15.99951,15.12012
895,-0.0625,-0.0625,0,0.006347656,-0.002441406,0.9892578,15.99951,15.99951,15.12012
897,0,0,-0.1875,-0.01708984,0.008789063,1.000977,15.99951,15.99951,15.12012
899,-0.125,-0.25,-0.0625,-0.01318359,-0.01416016,0.9970703,15.99951,15.99951,15.11475
901,0.125,0,0.0625,-0.01708984,-0.006347656,0.9931641,15.99951,15.99951,15.11475
903,-0.3125,0,0,0.01806641,-0.002441406,0.9892578,15.99951,15.99951,15.11475
905,0,-0.25,0,-0.0009765625,0.03222656,0.9697266,15.99951,15.99951,15.11475
907,-0.0625,0,0,-0.02099609,-0.006347656,0.9853516,15.99951,15.99951,15.11475
909,0,0,0.0625,-0.02490234,0.004882813,1.028809,15.99951,15.99951,15.11475
911,0,-0.0625,0.25,0.01806641,0.03222656,1.036621,15.99951,15.99951,15.11475
913,-0.0625,-0.125,0.25,-0.01318359,0.004882813,1.013184,15.99951,15.99951,15.10449
915,0.125,0,0.0625,-0.008789063,0.01660156,0.9970703,15.99951,15.99951,15.10449
918,-0.25,0.25,-0.125,-0.05615234,0.02050781,1.032715,15.99951,15.99951,15.10449
920,0.125,0,-0.0625,0.01806641,0.01660156,0.9775391,15.99951,15.99951,15.11475
922,0,-0.25,0,0.002441406,-0.006347656,1.020996,15.99951,15.99951,15.11475
924,-0.0625,-0.125,-0.0625,-0.03662109,0.03613281,0.9853516,15.99951,15.99951,15.11475
926,0,0,0,0.01416016,0.02050781,0.9931641,15.99951,15.99951,15.11475
928,0,0,-0.0625,0.006347656,0.0009765625,0.9970703,15.99951,15.99951,15.1123
930,0.0625,0,0.1875,0.002441406,0.01660156,0.9931641,15.99951,15.99951,15.1123
932,0,0,0,-0.02099609,-0.01025391,1.013184,15.99951,15.99951,15.1123
934,-0.125,-0.125,0,-0.01318359,0.01269531,1.013184,15.99951,15.99951,15.1123
936,0,-0.125,0.0625,0.01025391,0.02832031,0.9931641,15.99951,15.99951,15.1123
938,-0.0625,-0.125,0,0.01025391,0.0009765625,0.9736328,15.99951,15.99951,15.1123
940,0.25,-0.375,0.0625,-0.02490234,0.03222656,0.9931641,15.99951,15.99951,15.12256
942,-0.1875,0,0.0625,0.006347656,0.01660156,1.004883,15.99951,15.99951,15.12256
944,0.0625,-0.25,0.0625,0.002441406,0.008789063,1.008789,15.99951,15.99951,15.12256
946,-0.125,-0.1875,0.0625,-0.0009765625,0.02832031,0.9814453,15.99951,15.99951,15.12256
950,0,-0.4375,0,0.01806641,0.008789063,1.000977,15.99951,15.99951,15.12012
953,-0.25,0,0.125,0.02197266,0.03613281,1.008789,15.99951,15.99951,15.12012
955,-0.0625,-0.0625,0,-0.01318359,-0.002441406,1.004883,15.99951,15.99951,15.12012
957,-0.125,0,0,0.002441406,0.01269531,0.9853516,15.99951,15.99951,15.11768
959,0,0,0,-0.0009765625,0.01660156,1.028809,15.99951,15.99951,15.11768
961,-0.1875,-0.0625,-0.0625,-0.008789063,0.02050781,1.024902,15.99951,15.99951,15.11768
963,-0.0625,-0.125,0,-0.02099609,-0.002441406,1.020996,15.99951,15.99951,15.11768
965,-0.125,0,0,-0.004882813,-0.01025391,0.9697266,15.99951,15.99951,15.1123
967,0,0,-0.125,0.02197266,-0.002441406,1.000977,15.99951,15.99951,15.1123
969,-0.125,-0.3125,0.125,0.002441406,0.02050781,0.9814453,15.99951,15.99951,15.1123
971,-0.0625,0.125,0,-0.0009765625,-0.02587891,0.9931641,15.99951,15.99951,15.10693
973,0.0625,-0.25,0.1875,-0.004882813,0.008789063,1.008789,15.99951,15.99951,15.10693
975,0,-0.1875,0,0.01025391,0.03222656,1.000977,15.99951,15.99951,15.10693
977,-0.25,0.125,-0.0625,0.01806641,0.0009765625,1.008789,15.99951,15.99951,15.11768
979,0,-0.1875,-0.0625,-0.01318359,-0.01025391,1.004883,15.99951,15.99951,15.11768
981,0.0625,0,0,-0.01318359,0.02441406,1.01709,15.99951,15.99951,15.11768
983,0,-0.125,-0.125,-0.01318359,-0.002441406,1.004883,15.99951,15.99951,15.11768
986,-0.125,-0.125,0,-0.004882813,-0.002441406,1.008789,15.99951,15.99951,15.12012
988,-0.125,0,-0.0625,-0.008789063,0.0009765625,1.01709,15.99951,15.99951,15.12012
990,-0.0625,-0.0625,0.0625,-0.0009765625,0.02441406,1.000977,15.99951,15.99951,15.12012
992,0,0.0625,-0.1875,-0.01708984,0.0009765625,1.000977,15.99951,15.99951,15.11475
994,0,-0.1875,0,-0.04052734,0.01269531,0.9853516,15.99951,15.99951,15.11475
996,0,-0.1875,0.125,0.002441406,0.004882813,1.013184,15.99951,15.99951,15.11475
998,-0.0625,-0.125,0.0625,-0.01318359,0.004882813,1.004883,15.99951,15.99951,15.12012
1000,0,-0.0625,0.0625,-0.01708984,-0.01416016,1.004883,15.99951,15.99951,15.12012
1002,0.1875,0,-0.0625,0.01416016,-0.006347656,1.020996,15.99951,15.99951,15.12012
1004,-0.0625,0,-0.125,-0.06445313,0.01269531,1.000977,15.99951,15.99951,15.12012
1006,0.0625,-0.375,0.0625,-0.02490234,0.01269531,1.024902,15.99951,15.99951,15.1123
1008,-0.125,-0.4375,0,-0.0009765625,0.03222656,0.9853516,15.99951,15.99951,15.1123
1010,-0.1875,-0.1875,-0.125,0.006347656,0.008789063,0.9892578,15.99951,15.99951,15.1123
1012,0,-0.3125,0.125,-0.004882813,0.0009765625,0.9853516,15.99951,15.99951,15.11768
1014,0,0,0,-0.008789063,0.01660156,0.9931641,15.99951,15.99951,15.11768
1016,0,0,0,-0.02099609,0.008789063,1.004883,15.99951,15.99951,15.11768
1019,-0.125,-0.25,-0.0625,-0.02099609,0.01269531,1.008789,15.99951,15.99951,15.11768
1021,0,-0.0625,0.0625,0.01416016,0.008789063,0.9892578,15.99951,15.99951,15.11475
1023,0,-0.125,-0.0625,-0.008789063,0.02832031,0.9814453,15.99951,15.99951,15.11475
1025,0.1875,0.0625,0,0.01025391,0.0009765625,1.004883,15.99951,15.99951,15.11475
1027,0,-0.0625,-0.0625,-0.008789063,0.02832031,0.9931641,15.99951,15.99951,15.11768
1029,0,0,0,0.01025391,0.01269531,0.9853516,15.99951,15.99951,15.11768
1031,-0.1875,-0.25,-0.125,0.006347656,-0.01025391,0.9892578,15.99951,15.99951,15.11768
1033,0.1875,0,0.1875,0.002441406,-0.01416016,1.020996,15.99951,15.99951,15.10938
1035,0,0,-0.0625,0.03369141,0.01269531,1.004883,15.99951,15.99951,15.10938
1037,0,0.0625,0,0.006347656,0.01660156,1.008789,15.99951,15.99951,15.10938
1039,0,0,0,-0.02490234,0.02832031,0.9853516,15.99951,15.99951,15.10938
1041,-0.125,-0.0625,0,0.002441406,0.02832031,1.013184,15.99951,15.99951,15.10693
1043,-0.125,-0.3125,0,-0.004882813,0.0009765625,1.028809,15.99951,15.99951,15.10693
1045,0,-0.125,0,0.002441406,0.0009765625,1.028809,15.99951,15.99951,15.10693
1047,0,0.125,-0.125,-0.004882813,0.01269531,1.020996,15.99951,15.99951,15.11768
1049,0,0.125,0,-0.01318359,0.01660156,1.008789,15.99951,15.99951,15.11768
1052,0.1875,-0.25,-0.0625,-0.02880859,0.04833984,1.008789,15.99951,15.99951,15.11768
1054,-0.0625,-0.0625,0,0.01025391,0.01269531,1.000977,15.99951,15.99951,15.11768
1056,0,0,0,-0.01318359,0.008789063,1.008789,15.99951,15.99951,15.10693
1058,-0.125,-0.125,0,0.01806641,-0.002441406,0.9775391,15.99951,15.99951,15.10693
1060,0,0.0625,-0.0625,-0.0009765625,0.02050781,1.008789,15.99951,15.99951,15.10693
1062,0,-0.1875,0,-0.0009765625,-0.002441406,0.9853516,15.99951,15.99951,15.09619
1064,0,0.0625,-0.125,-0.01708984,0.02050781,0.9814453,15.99951,15.99951,15.09619
1066,-0.0625,-0.125,0.125,-0.02490234,0.05615234,1.004883,15.99951,15.99951,15.09619
1068,0,-0.125,0.1875,-0.03271484,0.01269531,1.020996,15.99951,15.99951,15.10938
1070,0,0.0625,-0.125,-0.0009765625,-0.01025391,0.9931641,15.99951,15.99951,15.10938
1072,0,0.0625,0,-0.02880859,-0.02197266,0.9775391,15.99951,15.99951,15.10938
1074,-0.125,-0.3125,-0.125,0.006347656,0.008789063,1.000977,15.99951,15.99951,15.10938
1076,0.0625,-0.1875,0,-0.004882813,0.01269531,0.9892578,15.99951,15.99951,15.12012
1078,0.0625,0.0625,0.0625,0.01416016,0.02050781,1.01709,15.99951,15.99951,15.12012
1080,0,-0.0625,0,0.03808594,0.01660156,0.9853516,15.99951,15.99951,15.12012
1083,-0.1875,0,0,-0.004882813,-0.01416016,1.01709,15.99951,15.99951,15.10693
1086,-0.125,0,0,-0.02099609,0.02050781,0.9814453,15.99951,15.99951,15.10693
1088,0,-0.125,0,0.01416016,-0.002441406,1.024902,15.99951,15.99951,15.10693
1090,-0.3125,0,-0.0625,-0.01318359,0.03222656,0.9814453,15.99951,15.99951,15.10693
1092,0,-0.1875,0.3125,0.006347656,0.02050781,0.9814453,15.99951,15.99951,15.12256
1094,-0.0625,0,-0.0625,-0.02880859,0.008789063,1.000977,15.99951,15.99951,15.12256
1096,0,-0.0625,0,-0.02880859,-0.01025391,0.9697266,15.99951,15.99951,15.12256
1098,-0.0625,-0.0625,-0.125,-0.02490234,0.008789063,1.01709,15.99951,15.99951,15.11475
1100,-0.125,-0.0625,-0.0625,-0.0009765625,0.01269531,1.036621,15.99951,15.99951,15.11475
1102,-0.0625,-0.1875,0,-0.02490234,-0.01025391,1.020996,15.99951,15.99951,15.11475
1104,-0.0625,-0.125,-0.125,-0.01708984,0.03222656,0.9736328,15.99951,15.99951,15.1123
1106,0,-0.0625,0,0.01806641,0.004882813,0.9892578,15.99951,15.99951,15.1123
1108,0,0,-0.125,0.002441406,0.01660156,1.024902,15.99951,15.99951,15.1123
1110,0,-0.1875,0.0625,-0.0009765625,-0.02587891,0.9814453,15.99951,15.99951,15.1123
1112,-0.0625,-0.125,0,0.01025391,-0.006347656,1.013184,15.99951,15.99951,15.10693
1114,0,-0.0625,-0.0625,-0.03662109,-0.01416016,1.004883,15.99951,15.99951,15.10693
1116,-0.125,0,0,0.02197266,0.004882813,0.9931641,15.99951,15.99951,15.10693
1119,0.1875,0,0.0625,-0.01708984,-0.02587891,1.020996,15.99951,15.99951,15.10449
1121,0.0625,0,-0.125,-0.008789063,0.01660156,0.9736328,15.99951,15.99951,15.10449
1123,0.0625,-0.0625,0.125,0.006347656,0.01660156,0.9931641,15.99951,15.99951,15.10449
1125,0,-0.125,0,0.002441406,0.04443359,1.000977,15.99951,15.99951,15.10449
1127,0,-0.3125,-0.25,-0.008789063,0.02050781,1.000977,15.99951,15.99951,15.10449
1129,0.125,0.125,-0.0625,0.002441406,0.02050781,0.9970703,15.99951,15.99951,15.10449
1131,0,0,-0.0625,-0.008789063,0.01269531,0.9970703,15.99951,15.99951,15.10449
1133,0,0,-0.0625,-0.02490234,0.02441406,1.024902,15.99951,15.99951,15.1123
1135,-0.125,-0.125,0,0.01416016,-0.02197266,0.9892578,15.99951,15.99951,15.1123
1137,0,-0.25,-0.1875,-0.0009765625,0.02050781,1.013184,15.99951,15.99951,15.1123
1139,-0.125,0.0625,0,-0.0009765625,-0.01806641,0.9931641,15.99951,15.99951,15.11475
1141,0,0,0,0.01806641,-0.002441406,1.004883,15.99951,15.99951,15.11475
1143,0,-0.125,0,-0.008789063,0.0009765625,0.9736328,15.99951,15.99951,15.11475
1145,-0.0625,0,0.1875,-0.004882813,0.02050781,0.9853516,15.99951,15.99951,15.11475
1147,-0.125,-0.0625,0.125,-0.008789063,0.03222656,1.013184,15.99951,15.99951,15.11475
1149,-0.125,-0.1875,0,-0.0009765625,0.01269531,1.008789,15.99951,15.99951,15.11475
1152,-0.3125,-0.1875,0,0.01806641,0.01269531,1.000977,15.99951,15.99951,15.11475
1154,0.1875,-0.0625,0,-0.008789063,0.008789063,0.9775391,15.99951,15.99951,15.11475
1156,0.0625,0,-0.125,0.006347656,0.01269531,0.9892578,15.99951,15.99951,15.11475
1158,-0.0625,-0.125,0.0625,-0.01708984,0.02441406,0.9775391,15.99951,15.99951,15.11475
1160,0.125,-0.125,0.1875,-0.004882813,-0.02978516,0.9853516,15.99951,15.99951,15.1123
1162,-0.3125,-0.25,-0.25,0.01416016,0.01269531,0.9892578,15.99951,15.99951,15.1123
1164,-0.0625,-0.0625,0,0.01025391,0.004882813,0.9853516,15.99951,15.99951,15.1123
1166,0.125,-0.1875,0.0625,0.002441406,0.004882813,0.9892578,15.99951,15.99951,15.1123
1168,0.0625,0.0625,0.0625,0.002441406,0.01269531,0.9697266,15.99951,15.99951,15.10693
1170,0,0,-0.125,-0.02880859,-0.01806641,0.9931641,15.99951,15.99951,15.10693
1172,0,-0.3125,0,-0.01318359,0.004882813,1.024902,15.99951,15.99951,15.10693
1174,-0.0625,-0.125,0.125,0.01025391,0.03613281,0.9931641,15.99951,15.99951,15.11768
1176,0.0625,-0.0625,0,0.006347656,0.02050781,1.008789,15.99951,15.99951,15.11768
1178,0.0625,0.0625,-0.125,-0.01318359,-0.01806641,0.9970703,15.99951,15.99951,15.11768
1180,-0.125,-0.0625,0.3125,-0.004882813,-0.006347656,0.9775391,15.99951,15.99951,15.11768
1182,-0.0625,-0.25,0.0625,0.006347656,0.0009765625,1.004883,15.99951,15.99951,15.11475
1185,-0.25,-0.125,0,0.002441406,-0.002441406,1.004883,15.99951,15.99951,15.11475
1187,-0.25,-0.0625,0,0.01806641,0.0009765625,1.008789,15.99951,15.99951,15.11475
1189,-0.1875,0.0625,-0.0625,0.01025391,-0.01416016,0.9892578,15.99951,15.99951,15.10449
1191,-0.125,0,0.125,0.006347656,0.01660156,0.9892578,15.99951,15.99951,15.10449
1193,0.0625,-0.0625,0.0625,-0.02490234,-0.01806641,0.9931641,15.99951,15.99951,15.10449
1195,0,-0.3125,-0.0625,-0.02490234,0.01660156,0.9970703,15.99951,15.99951,15.10156
1197,-0.125,-0.3125,0,0.002441406,-0.002441406,1.01709,15.99951,15.99951,15.10156
1199,-0.125,0,0,0.01025391,0.004882813,0.9775391,15.99951,15.99951,15.10156
1201,-0.0625,-0.0625,-0.1875,-0.0009765625,0.04833984,0.9931641,15.99951,15.99951,15.10156
1203,-0.0625,-0.1875,0,-0.01318359,0.02050781,1.020996,15.99951,15.99951,15.11768
1205,0,0,0,0.01806641,0.004882813,0.9853516,15.99951,15.99951,15.11768
1207,-0.25,0.0625,0,0.006347656,0.008789063,0.9853516,15.99951,15.99951,15.11768
1209,-0.0625,-0.1875,0,-0.0009765625,-0.006347656,1.024902,15.99951,15.99951,15.10938
1211,0,-0.0625,0,0.01416016,-0.02197266,0.9931641,15.99951,15.99951,15.10938
1213,0,0,0.125,-0.008789063,0.008789063,1.036621,15.99951,15.99951,15.10938
1217,-0.0625,0,-0.0625,-0.02099609,-0.002441406,0.9658203,15.99951,15.99951,15.10938
1220,-0.125,-0.0625,-0.1875,-0.008789063,-0.002441406,1.008789,15.99951,15.99951,15.10938
1222,-0.0625,-0.1875,0,-0.0009765625,0.004882813,1.008789,15.99951,15.99951,15.10938
1224,0,0,0.0625,-0.004882813,-0.01025391,1.000977,15.99951,15.99951,15.10938
1226,0,-0.125,0,-0.0009765625,0.004882813,1.004883,15.99951,15.99951,15.11475
1228,-0.125,0,0,-0.0009765625,0.02050781,0.9931641,15.99951,15.99951,15.11475
1230,0.125,-0.125,0,0.01025391,0.03222656,1.000977,15.99951,15.99951,15.11475
1232,-0.0625,-0.25,0.0625,-0.02880859,0.02050781,1.020996,15.99951,15.99951,15.10938
1234,-0.1875,-0.0625,0.1875,-0.004882813,0.01660156,1.008789,15.99951,15.99951,15.10938
1236,-0.0625,-0.1875,0.0625,0.002441406,-0.006347656,0.9892578,15.99951,15.99951,15.10938
1238,-0.0625,0,0.0625,0.01025391,-0.002441406,0.9775391,15.99951,15.99951,15.10938
1240,0.0625,-0.0625,0.0625,-0.03662109,0.01660156,1.000977,15.99951,15.99951,15.12012
1242,0.0625,-0.0625,-0.0625,-0.02099609,0.0009765625,1.024902,15.99951,15.99951,15.12012
1244,0,-0.3125,0,-0.01708984,0.0009765625,0.9697266,15.99951,15.99951,15.12012
1246,-0.1875,-0.0625,0,-0.02099609,0.02441406,0.9775391,15.99951,15.99951,15.1123
1248,0.0625,0,0,-0.004882813,0.004882813,0.9697266,15.99951,15.99951,15.1123
1250,0,0,0,-0.008789063,0.008789063,1.01709,15.99951,15.99951,15.1123
1253,-0.125,0.1875,0,-0.008789063,0.01660156,0.9970703,15.99951,15.99951,15.11768
1255,-0.1875,0,-0.0625,0.002441406,-0.002441406,1.004883,15.99951,15.99951,15.11768
1257,0,-0.125,0,-0.01708984,0.008789063,0.9931641,15.99951,15.99951,15.11768
1259,-0.3125,-0.0625,0,-0.008789063,-0.006347656,0.9970703,15.99951,15.99951,15.11768
1261,0,0,0.125,0.01025391,-0.006347656,0.9892578,15.99951,15.99951,15.10938
1263,0.0625,0,-0.0625,-0.004882813,-0.01025391,1.008789,15.99951,15.99951,15.10938
1265,0,0,0.0625,-0.0009765625,0.008789063,0.9970703,15.99951,15.99951,15.10938
1267,0,-0.1875,-0.125,-0.004882813,0.03613281,0.9853516,15.99951,15.99951,15.12012
1269,0,-0.125,0,-0.004882813,-0.01806641,1.008789,15.99951,15.99951,15.12012
1271,0.0625,-0.0625,0,-0.004882813,0.01269531,1.004883,15.99951,15.99951,15.12012
1273,0,0.0625,0.0625,0.01806641,0.004882813,0.9970703,15.99951,15.99951,15.12012
1275,0,0.0625,-0.125,-0.02099609,0.01660156,1.008789,15.99951,15.99951,15.1123
1277,0.0625,-0.0625,0.0625,0.002441406,-0.006347656,0.9970703,15.99951,15.99951,15.1123
1279,0.125,-0.125,-0.125,0.006347656,-0.006347656,0.9892578,15.99951,15.99951,15.1123
1281,0,-0.0625,-0.0625,-0.01708984,0.02441406,1.020996,15.99951,15.99951,15.1123
1283,0.0625,-0.125,-0.0625,-0.01318359,0.02441406,0.9853516,15.99951,15.99951,15.1123
1286,-0.125,-0.0625,0.0625,0.002441406,-0.01025391,1.000977,15.99951,15.99951,15.1123
1288,-0.125,-0.1875,-0.125,-0.02880859,0.01269531,0.9892578,15.99951,15.99951,15.10693
1290,0,0.0625,0,-0.03271484,-0.006347656,0.9736328,15.99951,15.99951,15.10693
1292,0,0.0625,0,-0.008789063,0.02441406,0.9931641,15.99951,15.99951,15.10693
1294,0,0,0.0625,0.01025391,0.02050781,0.9853516,15.99951,15.99951,15.10693
1296,0.25,0,0.0625,0.01025391,0.03613281,0.9931641,15.99951,15.99951,15.12012
1298,0,-0.1875,-0.0625,-0.02099609,0.01269531,1.020996,15.99951,15.99951,15.12012
1300,0.0625,0,0.0625,-0.02880859,0.0009765625,1.036621,15.99951,15.99951,15.12012
1302,-0.125,-0.3125,0,-0.03662109,-0.01025391,1.004883,15.99951,15.99951,15.10693
1304,-0.125,-0.125,0,0.01025391,0.004882813,0.9658203,15.99951,15.99951,15.10693
1306,0.125,0.0625,0.0625,0.05371094,0.01660156,0.9775391,15.99951,15.99951,15.10693
1308,-0.25,-0.0625,-0.1875,-0.008789063,0.0009765625,1.004883,15.99951,15.99951,15.10693
1310,-0.1875,-0.125,0.1875,-0.03271484,0.008789063,1.013184,15.99951,15.99951,15.12256
1312,-0.0625,0.125,0,-0.004882813,0.03222656,0.9931641,15.99951,15.99951,15.12256
1314,0.1875,-0.0625,-0.125,-0.01708984,0.004882813,0.9658203,15.99951,15.99951,15.12256
1316,0,-0.0625,-0.0625,-0.004882813,0.004882813,1.020996,15.99951,15.99951,15.11768
1319,-0.0625,-0.1875,0.0625,-0.0009765625,-0.002441406,0.9931641,15.99951,15.99951,15.11768
1321,-0.0625,0.0625,-0.0625,0.006347656,0.008789063,0.9775391,15.99951,15.99951,15.11768
1323,0.0625,-0.0625,-0.0625,-0.0009765625,-0.01416016,1.008789,15.99951,15.99951,15.11768
1325,0.125,-0.25,-0.1875,-0.0009765625,0.0009765625,1.01709,15.99951,15.99951,15.11768
1327,-0.0625,0,0,-0.02490234,0.01269531,1.004883,15.99951,15.99951,15.11768
1329,-0.3125,-0.125,0,0.006347656,0.01660156,0.9931641,15.99951,15.99951,15.11768
1331,-0.25,-0.25,-0.125,0.01806641,0.01269531,1.000977,15.99951,15.99951,15.11475
1333,-0.0625,0,0,0.006347656,0.02050781,0.9814453,15.99951,15.99951,15.11475
1335,0,0,0,0.02978516,-0.006347656,0.9931641,15.99951,15.99951,15.11475
1337,0,0,-0.0625,-0.02099609,0.02832031,1.01709,15.99951,15.99951,15.11475
1339,0.0625,-0.125,0.125,-0.01318359,-0.006347656,0.9892578,15.99951,15.99951,15.11475
1341,-0.1875,-0.1875,-0.1875,-0.004882813,0.01269531,0.9931641,15.99951,15.99951,15.11475
1343,0,-0.125,0.1875,-0.0009765625,0.008789063,1.013184,15.99951,15.99951,15.11475
1345,0.0625,0.0625,-0.125,-0.008789063,-0.002441406,0.9697266,15.99951,15.99951,15.11475
1347,0,0.125,0,-0.008789063,0.008789063,1.000977,15.99951,15.99951,15.11475
1350,0.125,0,-0.0625,-0.008789063,0.02050781,0.9814453,15.99951,15.99951,15.11475
1353,-0.125,-0.125,0.125,-0.0009765625,0.02441406,1.044434,15.99951,15.99951,15.11768
1355,0.0625,-0.25,0,-0.01708984,0.02050781,0.9970703,15.99951,15.99951,15.11768
1357,0.0625,0.0625,-0.0625,0.006347656,-0.01025391,1.020996,15.99951,15.99951,15.11768
1359,0.0625,-0.0625,0.0625,-0.01318359,0.01269531,0.9814453,15.99951,15.99951,15.11768
1361,-0.0625,0,0.0625,-0.02490234,-0.002441406,1.01709,15.99951,15.99951,15.11768
1363,0,-0.1875,-0.3125,-0.0009765625,0.0009765625,1.04834,15.99951,15.99951,15.11768
1365,0,0,0.125,-0.008789063,0.02832031,0.9697266,15.99951,15.99951,15.11768
1367,-0.1875,-0.25,-0.125,-0.0009765625,0.04833984,0.9853516,15.99951,15.99951,15.11768
1369,-0.125,0,-0.125,-0.04833984,0.02832031,0.9970703,15.99951,15.99951,15.11768
1371,0.0625,0.125,-0.0625,-0.0009765625,0.008789063,1.013184,15.99951,15.99951,15.11768
1373,0.125,0,0,-0.01318359,0.01660156,1.000977,15.99951,15.99951,15.10693
1375,0,-0.125,-0.0625,-0.004882813,0.0009765625,0.9892578,15.99951,15.99951,15.10693
1377,-0.3125,-0.375,0.0625,0.006347656,0.01660156,1.008789,15.99951,15.99951,15.10693
1379,-0.0625,0.125,0,0.006347656,0.008789063,1.004883,15.99951,15.99951,15.10449
1381,0.0625,0,-0.0625,0.01416016,-0.006347656,0.9775391,15.99951,15.99951,15.10449
1383,0,0,-0.125,0.01806641,0.01269531,1.020996,15.99951,15.99951,15.10449
1386,0,-0.0625,0,-0.008789063,0.01269531,0.9614258,15.99951,15.99951,15.10449
1388,-0.1875,0,-0.0625,-0.01318359,0.01269531,0.9931641,15.99951,15.99951,15.11475
1390,0.0625,-0.1875,0,0.002441406,0.01269531,0.9931641,15.99951,15.99951,15.11475
1392,-0.125,0,0,-0.02099609,0.02050781,1.008789,15.99951,15.99951,15.11475
1394,0.0625,-0.1875,0,-0.008789063,-0.02197266,0.9853516,15.99951,15.99951,15.12012
1396,-0.125,-0.0625,0,-0.02880859,0.0009765625,0.9931641,15.99951,15.99951,15.12012
1398,0,-0.125,0,-0.02490234,0.01660156,1.004883,15.99951,15.99951,15.12012
1400,0,-0.125,0,-0.004882813,0.01269531,1.028809,15.99951,15.99951,15.12012
1402,0,-0.0625,-0.1875,-0.008789063,0.03222656,0.9931641,15.99951,15.99951,15.1123
1404,-0.0625,0,0,0.01806641,-0.002441406,1.024902,15.99951,15.99951,15.1123
1406,-0.0625,0,0,-0.01318359,0.0009765625,0.9697266,15.99951,15.99951,15.1123
1408,0.0625,-0.25,-0.0625,-0.01708984,0.01660156,1.008789,15.99951,15.99951,15.1123
1410,-0.0625,-0.0625,0,-0.008789063,-0.006347656,1.004883,15.99951,15.99951,15.1123
1412,0,-0.0625,0.125,-0.0009765625,-0.002441406,1.028809,15.99951,15.99951,15.1123
1414,-0.1875,-0.0625,0,-0.008789063,-0.002441406,1.028809,15.99951,15.99951,15.10938
1416,0,0,0,-0.01318359,-0.006347656,0.9736328,15.99951,15.99951,15.10938
1419,0,0,0,0.002441406,0.03613281,1.013184,15.99951,15.99951,15.10938
1421,0,-0.125,0.0625,-0.02490234,-0.006347656,1.008789,15.99951,15.99951,15.10938
1423,-0.0625,-0.25,-0.0625,-0.004882813,0.01660156,1.000977,15.99951,15.99951,15.12256
1425,-0.3125,0,0.1875,-0.0009765625,0.03222656,1.020996,15.99951,15.99951,15.12256
1427,-0.125,0.0625,0.0625,-0.02099609,-0.01025391,0.9892578,15.99951,15.99951,15.12256
1429,0.125,-0.3125,0.125,-0.0009765625,0.0009765625,0.9970703,15.99951,15.99951,15.10693
1431,0,0,0,-0.004882813,0.02441406,1.01709,15.99951,15.99951,15.10693
1433,0,-0.375,0,-0.03271484,0.03222656,1.013184,15.99951,15.99951,15.10693
1435,-0.125,0,0.0625,-0.01318359,0.05615234,1.004883,15.99951,15.99951,15.10693
1437,0.1875,-0.0625,0,0.006347656,0.01269531,0.9892578,15.99951,15.99951,15.11475
1439,0,0,0.0625,-0.02490234,0.01660156,1.004883,15.99951,15.99951,15.11475
1441,-0.0625,0,0,0.01806641,0.01269531,0.9892578,15.99951,15.99951,15.11475
1443,-0.125,-0.0625,0.0625,-0.0009765625,0.02832031,0.9931641,15.99951,15.99951,15.1123
1445,-0.25,-0.0625,0,0.002441406,0.008789063,0.9892578,15.99951,15.99951,15.1123
1447,0,0.125,0,0.01806641,0.01269531,1.01709,15.99951,15.99951,15.1123
1449,0.0625,0.125,0,-0.01708984,-0.006347656,0.9931641,15.99951,15.99951,15.11768
1452,0,-0.0625,-0.125,-0.03271484,0.008789063,0.9814453,15.99951,15.99951,15.11768
1454,0,0.1875,0.125,-0.04052734,0.03613281,1.008789,15.99951,15.99951,15.11768
1456,0,0,0,0.01806641,0.0009765625,0.9853516,15.99951,15.99951,15.11768
1458,-0.0625,-0.0625,0.1875,-0.02099609,-0.01806641,0.9931641,15.99951,15.99951,15.11475
1460,0,-0.125,0.0625,0.002441406,0.02050781,0.9892578,15.99951,15.99951,15.11475
1462,0,-0.125,0,-0.01318359,0.04052734,0.9775391,15.99951,15.99951,15.11475
1464,0.1875,0,-0.125,-0.02490234,0.01660156,1.020996,15.99951,15.99951,15.10693
1466,0,-0.125,0.25,-0.01318359,0.03613281,1.052246,15.99951,15.99951,15.10693
1468,-0.125,-0.125,-0.125,-0.02490234,0.004882813,0.9775391,15.99951,15.99951,15.10693
1470,0,-0.0625,0,-0.0009765625,0.03613281,0.9814453,15.99951,15.99951,15.10693
1472,0,0,0,-0.01318359,0.01269531,0.9853516,15.99951,15.99951,15.10693
1474,-0.0625,-0.0625,0,0.01025391,-0.002441406,0.9892578,15.99951,15.99951,15.10693
1476,-0.0625,-0.0625,0,-0.02880859,0.004882813,1.008789,15.99951,15.99951,15.10693
1478,-0.0625,-0.0625,0,-0.04833984,0.01269531,0.9775391,15.99951,15.99951,15.1123
1480,-0.0625,-0.0625,0.125,-0.01708984,0.02832031,0.9853516,15.99951,15.99951,15.1123
1484,0,0,0.0625,-0.008789063,0.02050781,0.9814453,15.99951,15.99951,15.1123
1487,-0.1875,-0.1875,0,0.006347656,0.0009765625,0.9736328,15.99951,15.99951,15.10693
1489,0.0625,-0.0625,0.125,-0.01318359,0.008789063,1.028809,15.99951,15.99951,15.10693
1491,-0.3125,0,0,-0.02880859,-0.002441406,0.9970703,15.99951,15.99951,15.10693
1493,-0.125,0.0625,0,-0.008789063,-0.006347656,0.9892578,15.99951,15.99951,15.10693
1495,-0.125,-0.25,-0.1875,-0.02490234,0.008789063,1.004883,15.99951,15.99951,15.10693
1497,0,0.0625,0.0625,-0.004882813,-0.01416016,1.028809,15.99951,15.99951,15.10693
1499,0.125,0,0.25,0.002441406,0.02441406,1.000977,15.99951,15.99951,15.10693
1501,0.0625,0,0,0.002441406,0.0009765625,0.9775391,15.99951,15.99951,15.11475
1503,-0.0625,-0.0625,0.0625,0.01025391,0.01660156,0.9853516,15.99951,15.99951,15.11475
1505,-0.25,0,-0.0625,-0.008789063,0.008789063,0.9892578,15.99951,15.99951,15.11475
1507,0,-0.125,0.0625,-0.004882813,0.0009765625,0.9892578,15.99951,15.99951,15.10693
1509,-0.25,-0.0625,-0.0625,-0.0009765625,0.03613281,1.004883,15.99951,15.99951,15.10693
1511,-0.25,0.1875,-0.125,0.006347656,-0.01416016,0.9970703,15.99951,15.99951,15.10693
1513,0,0,0.1875,-0.04833984,0.01660156,1.036621,15.99951,15.99951,15.10693
1515,0,-0.3125,0,-0.02490234,0.03222656,0.9931641,15.99951,15.99951,15.11768
1517,0.1875,-0.0625,0,-0.03662109,-0.01025391,1.01709,15.99951,15.99951,15.11768
1520,-0.0625,-0.1875,0,0.002441406,-0.006347656,1.004883,15.99951,15.99951,15.11768
1522,0,-0.125,0,-0.01318359,-0.01025391,0.9970703,15.99951,15.99951,15.11475
1524,0.1875,0.0625,0,0.01025391,0.0009765625,1.008789,15.99951,15.99951,15.11475
1526,0.0625,-0.0625,0.0625,-0.008789063,0.02050781,0.9931641,15.99951,15.99951,15.11475
1528,0,-0.0625,-0.125,-0.02099609,0.0009765625,0.9853516,15.99951,15.99951,15.11475
1530,0,-0.125,0.0625,-0.01318359,-0.01416016,0.9892578,15.99951,15.99951,15.12256
1532,-0.125,0,0,-0.0009765625,0.01660156,1.004883,15.99951,15.99951,15.12256
1534,0,0,0,-0.02490234,0.008789063,1.020996,15.99951,15.99951,15.12256
1536,-0.125,0,0.0625,0.006347656,0.004882813,1.004883,15.99951,15.99951,15.11475
1538,0,-0.125,0.0625,0.01025391,0.03222656,1.004883,15.99951,15.99951,15.11475
1540,-0.125,-0.125,0.0625,0.006347656,0.01269531,1.036621,15.99951,15.99951,15.11475
1542,-0.1875,-0.25,0.0625,-0.02099609,0.008789063,1.024902,15.99951,15.99951,15.11475
1544,0,-0.0625,0,-0.01708984,0.004882813,1.024902,15.99951,15.99951,15.11475
1546,-0.1875,0.125,0.0625,-0.01318359,0.0009765625,0.9853516,15.99951,15.99951,15.11475
1548,0.1875,-0.0625,0,-0.02099609,0.008789063,1.004883,15.99951,15.99951,15.11475
1550,-0.125,0.125,0,-0.02880859,0.01660156,0.9775391,15.99951,15.99951,15.10449
1553,-0.125,0,0.0625,0.002441406,0.03613281,0.9892578,15.99951,15.99951,15.10449
1555,0,-0.1875,0,0.01416016,0.0009765625,1.013184,15.99951,15.99951,15.10449
1557,-0.125,0,0,-0.02099609,0.03613281,0.9931641,15.99951,15.99951,15.12012
1559,0.0625,0.0625,0.125,-0.0009765625,-0.02978516,1.004883,15.99951,15.99951,15.12012
1561,0,0,0,-0.01708984,0.02441406,0.9970703,15.99951,15.99951,15.12012
1563,-0.3125,-0.1875,0,0.002441406,0.02832031,1.004883,15.99951,15.99951,15.12012
1565,0,0.0625,0.125,-0.02880859,-0.002441406,1.008789,15.99951,15.99951,15.09912
1567,-0.125,-0.3125,0,0.02587891,0.02050781,0.9892578,15.99951,15.99951,15.09912
1569,0.0625,0,0,-0.004882813,-0.006347656,1.008789,15.99951,15.99951,15.09912
1571,0,0,0,0.002441406,0.008789063,1.024902,15.99951,15.99951,15.11475
1573,0.0625,0,-0.125,-0.01318359,0.01660156,0.9892578,15.99951,15.99951,15.11475
1575,0,-0.0625,0,-0.008789063,-0.01806641,1.000977,15.99951,15.99951,15.11475
1577,0.0625,-0.1875,0.0625,-0.004882813,0.004882813,1.000977,15.99951,15.99951,15.10938
1579,0.0625,0,0,-0.02099609,0.01660156,0.9853516,15.99951,15.99951,15.10938
1581,-0.0625,0,0,0.01025391,0.0009765625,1.004883,15.99951,15.99951,15.10938
1583,0,0,0.125,-0.04052734,0.01660156,0.9775391,15.99951,15.99951,15.10938
1586,-0.0625,0.0625,0,0.01025391,0.004882813,0.9853516,15.99951,15.99951,15.11475
1588,0.0625,0,0.125,-0.03271484,0.004882813,1.008789,15.99951,15.99951,15.11475
1590,-0.25,0,0,0.006347656,0.01269531,0.9736328,15.99951,15.99951,15.11475
1592,-0.0625,0,0,-0.008789063,-0.002441406,0.9970703,15.99951,15.99951,15.12012
1594,0.0625,0,-0.0625,0.01806641,-0.01025391,0.9814453,15.99951,15.99951,15.12012
1596,-0.0625,-0.0625,0,-0.01318359,0.004882813,1.024902,15.99951,15.99951,15.12012
1598,-0.0625,-0.0625,0,-0.02880859,0.004882813,1.01709,15.99951,15.99951,15.1123
1600,0.125,-0.0625,0,-0.004882813,0.008789063,1.020996,15.99951,15.99951,15.1123
1602,0,-0.1875,0,0.006347656,0.02832031,1.008789,15.99951,15.99951,15.1123
1604,-0.125,-0.1875,0.125,-0.02490234,0.02050781,1.000977,15.99951,15.99951,15.1123
1606,-0.125,-0.1875,0,0.002441406,0.04443359,1.01709,15.99951,15.99951,15.10938
1608,-0.1875,0.25,0,-0.03271484,0.02050781,0.9892578,15.99951,15.99951,15.10938
1610,-0.1875,-0.125,0,0.01025391,-0.01025391,1.020996,15.99951,15.99951,15.10938
1612,0,-0.3125,0.0625,0.006347656,0.01660156,1.000977,15.99951,15.99951,15.1123
1614,0,0,-0.0625,-0.01318359,0.02050781,1.020996,15.99951,15.99951,15.1123
1617,0,-0.25,0.0625,-0.01708984,0.02832031,1.000977,15.99951,15.99951,15.1123
1620,0,0,-0.0625,-0.01708984,0.01660156,1.020996,15.99951,15.99951,15.1123
1622,0.1875,0.0625,-0.125,-0.0009765625,0.03613281,0.9970703,15.99951,15.99951,15.10449
1624,-0.0625,0,0.1875,-0.004882813,0.04443359,0.9853516,15.99951,15.99951,15.10449
1626,0,-0.1875,0,-0.004882813,-0.006347656,0.9853516,15.99951,15.99951,15.10449
1628,-0.125,-0.125,-0.125,0.006347656,0.03222656,1.000977,15.99951,15.99951,15.1123
1630,0,-0.1875,0,-0.0009765625,-0.006347656,1.004883,15.99951,15.99951,15.1123
1632,0.125,0.125,0.0625,-0.008789063,0.0009765625,0.9931641,15.99951,15.99951,15.1123
1634,-0.0625,-0.0625,0,-0.01318359,0.02050781,0.9853516,15.99951,15.99951,15.11768
1636,0,-0.0625,0,0.006347656,0.0009765625,1.01709,15.99951,15.99951,15.11768
1638,0,0,0,0.002441406,0.02441406,0.9853516,15.99951,15.99951,15.11768
1640,0.125,0.0625,0,0.02197266,0.01269531,0.9970703,15.99951,15.99951,15.11768
1642,0.0625,0.0625,-0.0625,0.002441406,-0.01025391,0.9814453,15.99951,15.99951,15.11475
1644,0.0625,0,0,0.01416016,0.03613281,0.9775391,15.99951,15.99951,15.11475
1646,0,0,0,0.002441406,0.02050781,1.028809,15.99951,15.99951,15.11475
1648,-0.1875,-0.125,0,-0.01318359,-0.006347656,0.9814453,15.99951,15.99951,15.12256
1650,-0.125,0,0,0.006347656,0.004882813,1.008789,15.99951,15.99951,15.12256
1653,0,0,0,0.01025391,0.0009765625,1.000977,15.99951,15.99951,15.12256
1655,0,0,0,-0.02490234,-0.002441406,1.008789,15.99951,15.99951,15.12256
1657,-0.0625,0.0625,0,-0.04443359,0.02832031,1.008789,15.99951,15.99951,15.11475
1659,0.0625,-0.125,0,-0.01708984,0.01660156,1.013184,15.99951,15.99951,15.11475
1661,-0.0625,0,0,-0.01318359,0.01660156,0.9931641,15.99951,15.99951,15.11475
1663,-0.0625,0.0625,0,-0.008789063,0.0009765625,1.004883,15.99951,15.99951,15.11768
1665,0,-0.0625,0.0625,-0.01318359,0.02832031,0.9931641,15.99951,15.99951,15.11768
1667,-0.25,-0.25,0.0625,-0.02099609,0.01660156,0.9970703,15.99951,15.99951,15.11768
1669,0.0625,-0.1875,0.0625,-0.02490234,0.02050781,0.9892578,15.99951,15.99951,15.10693
1671,0,-0.1875,0.1875,-0.02490234,0.008789063,0.9853516,15.99951,15.99951,15.10693
1673,-0.0625,-0.125,0,-0.008789063,0.008789063,1.004883,15.99951,15.99951,15.10693
1675,0.0625,0,0.0625,0.03369141,0.01660156,0.9775391,15.99951,15.99951,15.10693
1677,0,-0.0625,0,-0.04443359,0.02441406,1.008789,15.99951,15.99951,15.10938
1679,0,-0.25,0.1875,0.006347656,0.02832031,1.004883,15.99951,15.99951,15.10938
1681,0,-0.125,0,-0.02880859,0.01269531,1.000977,15.99951,15.99951,15.10938
1683,-0.25,-0.0625,0.125,0.01806641,0.03222656,0.9892578,15.99951,15.99951,15.12012
1686,0,-0.125,0.0625,0.01416016,0.004882813,0.9697266,15.99951,15.99951,15.12012
1688,0,0,0,-0.02880859,0.03222656,0.9892578,15.99951,15.99951,15.12012
1690,-0.125,-0.0625,0.0625,-0.01318359,0.0009765625,0.9775391,15.99951,15.99951,15.12012
1692,-0.0625,-0.25,-0.25,0.002441406,0.008789063,0.9970703,15.99951,15.99951,15.12012
1694,-0.125,-0.0625,0.0625,-0.01318359,0.004882813,0.9970703,15.99951,15.99951,15.12012
1696,0,0,0.0625,-0.02490234,0.04443359,1.040527,15.99951,15.99951,15.12012
1698,0,0,0.1875,-0.03271484,-0.002441406,0.9853516,15.99951,15.99951,15.11475
1700,0,0,0,0.01025391,-0.01025391,0.9536133,15.99951,15.99951,15.11475
1702,-0.1875,-0.125,-0.0625,-0.008789063,-0.002441406,0.9931641,15.99951,15.99951,15.11475
1704,0.125,-0.0625,-0.1875,-0.0009765625,0.004882813,0.9814453,15.99951,15.99951,15.12549
1706,-0.125,-0.0625,0.125,-0.02099609,0.03613281,0.9970703,15.99951,15.99951,15.12549
1708,-0.125,-0.0625,0.125,-0.004882813,0.01660156,0.9892578,15.99951,15.99951,15.12549
1710,0,0,0,0.01806641,-0.01806641,0.9931641,15.99951,15.99951,15.12549
1712,-0.0625,0,0,0.03808594,0.0009765625,1.032715,15.99951,15.99951,15.11768
1714,0.0625,0,0.0625,0.01806641,0.008789063,0.9970703,15.99951,15.99951,15.11768
1716,0,-0.125,0,-0.01318359,-0.006347656,1.000977,15.99951,15.99951,15.11768
1719,-0.125,-0.125,0.25,-0.04833984,0.008789063,0.9814453,15.99951,15.99951,15.10693
1721,-0.0625,-0.1875,-0.0625,-0.01708984,-0.01416016,1.000977,15.99951,15.99951,15.10693
1723,0,0,0,-0.03271484,0.008789063,0.9814453,15.99951,15.99951,15.10693
1725,0.0625,-0.125,0,-0.0009765625,0.008789063,0.9931641,15.99951,15.99951,15.11768
1727,0,0,0.0625,-0.004882813,-0.006347656,1.024902,15.99951,15.99951,15.11768
1729,0,-0.0625,0,-0.0009765625,0.0009765625,1.01709,15.99951,15.99951,15.11768
1731,0.0625,-0.125,0.125,-0.008789063,0.02441406,1.008789,15.99951,15.99951,15.11768
1733,-0.0625,-0.125,-0.125,0.01806641,-0.01025391,0.9814453,15.99951,15.99951,15.10449
1735,-0.125,-0.125,0,-0.01318359,-0.002441406,1.004883,15.99951,15.99951,15.10449
1737,0.1875,-0.125,0.125,-0.02490234,0.01660156,1.020996,15.99951,15.99951,15.10449
1739,-0.125,0,0,-0.02099609,0.01660156,0.9892578,15.99951,15.99951,15.11768
1741,-0.125,0,0.0625,-0.01318359,0.0009765625,0.9970703,15.99951,15.99951,15.11768
1743,-0.0625,-0.1875,-0.0625,0.002441406,0.03222656,1.000977,15.99951,15.99951,15.11768
1745,0,-0.0625,0.125,0.006347656,-0.01025391,0.9931641,15.99951,15.99951,15.11768
1747,0.0625,0.25,0.0625,-0.004882813,-0.002441406,0.9853516,15.99951,15.99951,15.10449
1751,0,0.25,0,-0.004882813,0.004882813,1.008789,15.99951,15.99951,15.10449
1754,-0.3125,-0.0625,0.0625,-0.02880859,0.01660156,0.9970703,15.99951,15.99951,15.10449
1756,0,-0.125,0.0625,-0.008789063,-0.006347656,0.9853516,15.99951,15.99951,15.10449
1758,-0.25,0,0,-0.01318359,0.03222656,1.004883,15.99951,15.99951,15.10449
1760,0.125,-0.125,0,0.02197266,0.03613281,0.9614258,15.99951,15.99951,15.10449
1762,-0.1875,0.0625,0,-0.0009765625,-0.002441406,1.004883,15.99951,15.99951,15.12256
1764,0.1875,-0.125,-0.0625,-0.01318359,0.0009765625,0.9970703,15.99951,15.99951,15.12256
1766,-0.125,-0.0625,-0.0625,-0.04833984,0.004882813,1.008789,15.99951,15.99951,15.12256
1768,-0.1875,0.0625,0.0625,-0.02490234,0.01660156,0.9892578,15.99951,15.99951,15.12256
1770,0.125,-0.3125,0,0.01806641,0.004882813,1.013184,15.99951,15.99951,15.11475
1772,0,0,0,0.03369141,0.04052734,1.004883,15.99951,15.99951,15.11475
1774,-0.0625,0,-0.0625,-0.01318359,0.02050781,1.020996,15.99951,15.99951,15.11475
1776,-0.1875,0,0.125,-0.01318359,0.01269531,1.013184,15.99951,15.99951,15.12012
1778,0.0625,-0.1875,-0.0625,0.01025391,0.0009765625,1.01709,15.99951,15.99951,15.12012
1780,0,0.125,0.0625,-0.008789063,0.03613281,0.9970703,15.99951,15.99951,15.12012
1782,-0.0625,-0.25,0.125,0.01806641,0.02832031,1.008789,15.99951,15.99951,15.12012
1784,0.0625,0.0625,-0.125,-0.03271484,0.0009765625,0.9775391,15.99951,15.99951,15.1123
1787,0.125,-0.125,0,0.02197266,-0.006347656,1.004883,15.99951,15.99951,15.1123
1789,0,0,0.0625,0.006347656,0.01660156,1.000977,15.99951,15.99951,15.1123
1791,-0.0625,-0.25,-0.125,-0.04443359,0.01660156,1.008789,15.99951,15.99951,15.10938
1793,-0.125,0,0,0.01806641,0.02050781,1.01709,15.99951,15.99951,15.10938
1795,0.0625,-0.0625,-0.0625,-0.02099609,-0.02587891,1.01709,15.99951,15.99951,15.10938
1797,-0.3125,0,0,-0.008789063,-0.006347656,0.9853516,15.99951,15.99951,15.10693
1799,-0.0625,0,0,-0.01318359,0.01660156,0.9853516,15.99951,15.99951,15.10693
1801,-0.0625,0,0.1875,-0.01708984,0.02441406,1.000977,15.99951,15.99951,15.10693
1803,-0.3125,0,-0.0625,-0.0009765625,0.0009765625,0.9853516,15.99951,15.99951,15.10693
1805,-0.125,-0.1875,0,0.002441406,0.03222656,0.9853516,15.99951,15.99951,15.10693
1807,0,-0.0625,0,0.01025391,0.02441406,1.036621,15.99951,15.99951,15.10693
1809,0,-0.125,0.0625,0.01416016,0.008789063,0.9970703,15.99951,15.99951,15.10693
1811,-0.125,0,0,-0.02880859,0.03613281,1.013184,15.99951,15.99951,15.11768
1813,0,-0.1875,0,-0.02099609,0.008789063,1.024902,15.99951,15.99951,15.11768
1815,-0.125,0,0,-0.01318359,-0.01025391,0.9970703,15.99951,15.99951,15.11768
1817,-0.0625,-0.0625,-0.0625,-0.0009765625,0.008789063,0.9775391,15.99951,15.99951,15.11768
1820,-0.0625,0,0,0.002441406,0.02832031,1.004883,15.99951,15.99951,15.11768
1822,0,-0.125,0.125,-0.008789063,0.01269531,0.9970703,15.99951,15.99951,15.11768
1824,-0.125,0.0625,0.0625,-0.01318359,0.02050781,1.04834,15.99951,15.99951,15.11768
1826,0,-0.1875,-0.0625,-0.01708984,0.0009765625,1.004883,15.99951,15.99951,15.11475
1828,0,-0.25,-0.0625,-0.02099609,0.01660156,0.9853516,15.99951,15.99951,15.11475
1830,-0.125,-0.125,0,0.002441406,0.0009765625,0.9931641,15.99951,15.99951,15.11475
1832,0,-0.0625,0,0.002441406,0.004882813,0.9931641,15.99951,15.99951,15.10693
1834,-0.125,-0.0625,0,-0.01318359,0.01269531,1.000977,15.99951,15.99951,15.10693
1836,-0.25,-0.25,0,-0.02490234,0.02832031,0.9736328,15.99951,15.99951,15.10693
1838,-0.0625,-0.1875,0.1875,0.006347656,0.004882813,1.004883,15.99951,15.99951,15.10693
1840,-0.0625,-0.0625,0,-0.01318359,0.02832031,0.9853516,15.99951,15.99951,15.1123
1842,0,0,0.0625,-0.004882813,0.0009765625,0.9814453,15.99951,15.99951,15.1123
1844,-0.1875,-0.125,0,-0.02880859,-0.002441406,1.004883,15.99951,15.99951,15.1123
1846,-0.125,-0.1875,0,-0.004882813,0.02441406,1.01709,15.99951,15.99951,15.11768
1848,0.0625,-0.1875,0,0.002441406,0.008789063,1.013184,15.99951,15.99951,15.11768
1850,-0.0625,0.0625,0,-0.01708984,0.004882813,0.9853516,15.99951,15.99951,15.11768
1853,0,-0.3125,0,0.01806641,0.01660156,1.020996,15.99951,15.99951,15.1123
1855,0.1875,-0.125,-0.0625,-0.0009765625,0.02832031,0.9814453,15.99951,15.99951,15.1123
1857,0,-0.1875,-0.125,-0.02490234,0.004882813,1.004883,15.99951,15.99951,15.1123
1859,-0.25,-0.1875,0,-0.02099609,-0.006347656,0.9892578,15.99951,15.99951,15.1123
1861,-0.0625,-0.1875,-0.0625,0.002441406,0.02050781,1.000977,15.99951,15.99951,15.1123
1863,-0.0625,-0.1875,0.0625,-0.02099609,0.008789063,0.9853516,15.99951,15.99951,15.1123
1865,0,0,0,0.002441406,-0.006347656,1.040527,15.99951,15.99951,15.1123
1867,0,0,0,0.01416016,-0.02587891,0.9814453,15.99951,15.99951,15.11475
1869,0.1875,0,0.0625,-0.02490234,0.01269531,1.040527,15.99951,15.99951,15.11475
1871,-0.125,-0.125,0,-0.01318359,0.01660156,0.9970703,15.99951,15.99951,15.11475
1873,-0.125,-0.125,0.0625,-0.004882813,0.04833984,0.9853516,15.99951,15.99951,15.11475
1875,-0.0625,0,0,-0.008789063,0.01660156,1.01709,15.99951,15.99951,15.1123
1877,0.125,0,0,0.01806641,0.01269531,0.9931641,15.99951,15.99951,15.1123
1879,0,0.0625,-0.0625,0.01416016,0.02832031,0.9853516,15.99951,15.99951,15.1123
1881,0.0625,-0.0625,0,-0.02880859,0.0009765625,1.008789,15.99951,15.99951,15.1123
1884,-0.125,0.0625,0,-0.0009765625,0.01660156,1.020996,15.99951,15.99951,15.1123
1887,-0.125,0,0.0625,-0.02490234,0.02441406,1.032715,15.99951,15.99951,15.1123
1889,0,-0.125,0,0.002441406,0.0009765625,0.9892578,15.99951,15.99951,15.12256
1891,-0.0625,0,0.125,-0.03271484,-0.002441406,0.9892578,15.99951,15.99951,15.12256
1893,-0.0625,0,-0.1875,-0.0009765625,0.01269531,0.9892578,15.99951,15.99951,15.12256
1895,0,0.0625,0.0625,-0.01318359,0.01269531,0.9931641,15.99951,15.99951,15.12256
1897,0,-0.3125,0.0625,-0.02490234,0.004882813,0.9853516,15.99951,15.99951,15.12012
1899,-0.0625,-0.25,0.125,-0.02099609,0.0009765625,0.9931641,15.99951,15.99951,15.12012
1901,-0.125,0.0625,-0.1875,0.03369141,0.02441406,0.9775391,15.99951,15.99951,15.12012
1903,0,0,-0.1875,-0.01708984,-0.01416016,1.004883,15.99951,15.99951,15.12256
1905,0,-0.125,-0.0625,-0.008789063,0.01660156,0.9697266,15.99951,15.99951,15.12256
1907,0,-0.125,0,-0.01708984,0.0009765625,0.9931641,15.99951,15.99951,15.12256
1909,0,-0.3125,0.125,0.002441406,0.008789063,1.020996,15.99951,15.99951,15.12256
1911,-0.0625,-0.125,0,-0.008789063,-0.006347656,1.020996,15.99951,15.99951,15.11475
1913,-0.0625,-0.125,0,-0.008789063,0.02050781,0.9736328,15.99951,15.99951,15.11475
1915,0,0,-0.125,0.02197266,0.004882813,1.000977,15.99951,15.99951,15.11475
1917,-0.1875,-0.0625,0,-0.02490234,0.01660156,1.000977,15.99951,15.99951,15.11768
1920,0.125,0,0,0.002441406,0.008789063,0.9931641,15.99951,15.99951,15.11768
1922,0.125,-0.25,0.0625,-0.01318359,0.01269531,1.028809,15.99951,15.99951,15.11768
1924,0.0625,-0.1875,0,-0.02099609,0.05224609,0.9775391,15.99951,15.99951,15.11475
1926,-0.25,0.0625,0.0625,-0.01318359,-0.01416016,1.004883,15.99951,15.99951,15.11475
1928,0.0625,0,-0.125,-0.02099609,-0.002441406,1.020996,15.99951,15.99951,15.11475
1930,-0.0625,-0.0625,0,-0.0009765625,0.0009765625,1.008789,15.99951,15.99951,15.11475
1932,0,-0.125,0.25,0.01806641,0.008789063,1.024902,15.99951,15.99951,15.11475
1934,-0.25,-0.0625,0,-0.01708984,0.004882813,1.036621,15.99951,15.99951,15.11475
1936,-0.0625,0,-0.125,-0.004882813,0.01269531,1.020996,15.99951,15.99951,15.11475
1938,-0.125,-0.25,0.125,-0.0009765625,0.03613281,1.008789,15.99951,15.99951,15.11768
1940,-0.0625,0.0625,-0.3125,0.01025391,0.004882813,0.9892578,15.99951,15.99951,15.11768
1942,-0.125,-0.0625,-0.0625,-0.02099609,-0.02587891,1.004883,15.99951,15.99951,15.11768
1944,-0.1875,-0.25,0,-0.008789063,-0.02197266,0.9931641,15.99951,15.99951,15.11768
1946,-0.125,-0.1875,0,0.01416016,-0.006347656,1.008789,15.99951,15.99951,15.11768
1948,-0.0625,0,0.1875,-0.008789063,0.05224609,0.9970703,15.99951,15.99951,15.11768
1950,0.125,0.125,0,-0.01318359,-0.002441406,1.004883,15.99951,15.99951,15.11768
1953,0,0,0.0625,0.002441406,-0.03369141,1.008789,15.99951,15.99951,15.11475
1955,-0.25,0,-0.125,-0.03271484,-0.006347656,1.020996,15.99951,15.99951,15.11475
1957,0,-0.125,0.1875,-0.02099609,0.008789063,1.000977,15.99951,15.99951,15.11475
1959,0.0625,0.0625,0,-0.01708984,0.0009765625,0.9853516,15.99951,15.99951,15.11768
1961,-0.125,-0.0625,0.1875,-0.02490234,0.04443359,0.9853516,15.99951,15.99951,15.11768
1963,0,0.1875,-0.0625,-0.004882813,0.01660156,0.9892578,15.99951,15.99951,15.11768
1965,0,0,0,-0.02099609,0.0009765625,1.044434,15.99951,15.99951,15.11768
1967,0,0.125,0,-0.02099609,0.02050781,1.01709,15.99951,15.99951,15.10449
1969,-0.125,-0.125,0,-0.008789063,0.01660156,1.000977,15.99951,15.99951,15.10449
1971,-0.0625,-0.25,0,-0.004882813,-0.01025391,0.9775391,15.99951,15.99951,15.10449
1973,0,-0.125,-0.125,0.01025391,0.008789063,0.9970703,15.99951,15.99951,15.11768
1975,0.0625,0.125,-0.0625,-0.01708984,0.02832031,0.9775391,15.99951,15.99951,15.11768
1977,0,-0.1875,0,-0.0009765625,0.02832031,1.004883,15.99951,15.99951,15.11768
1979,0,-0.4375,0,-0.01708984,0.004882813,1.020996,15.99951,15.99951,15.1123
1981,-0.0625,0,0.0625,0.01025391,0.0009765625,1.008789,15.99951,15.99951,15.1123
1983,-0.25,0,0.0625,0.002441406,-0.002441406,0.9614258,15.99951,15.99951,15.1123
1986,0.0625,0.0625,0.0625,-0.0009765625,0.03222656,1.028809,15.99951,15.99951,15.1123
1988,-0.0625,0,0,-0.004882813,-0.01025391,0.9931641,15.99951,15.99951,15.12012
1990,0.0625,-0.125,0.125,-0.02490234,0.02441406,1.024902,15.99951,15.99951,15.12012
1992,-0.0625,-0.0625,0,-0.01708984,0.02050781,1.008789,15.99951,15.99951,15.12012
1994,0,-0.3125,-0.0625,0.01025391,0.02050781,0.9970703,15.99951,15.99951,15.1123
1996,0.0625,-0.0625,0,0.006347656,0.01269531,0.9931641,15.99951,15.99951,15.1123
1998,0,-0.125,0,-0.02490234,0.02832031,1.004883,15.99951,15.99951,15.1123
2000,0.0625,0,0.125,-0.02490234,-0.01806641,0.9892578,15.99951,15.99951,15.1123
2002,-0.0625,-0.1875,0,0.002441406,0.008789063,0.9931641,15.99951,15.99951,15.12012
2004,-0.125,-0.125,0.1875,-0.01318359,0.02832031,1.008789,15.99951,15.99951,15.12012
2006,0,0,0,0.02587891,0.004882813,0.9775391,15.99951,15.99951,15.12012
2008,0.0625,-0.3125,-0.125,-0.01318359,0.02441406,1.028809,15.99951,15.99951,15.12256
2010,-0.1875,0,-0.0625,-0.004882813,0.01660156,1.008789,15.99951,15.99951,15.12256
2012,0,-0.125,0,-0.02490234,0.008789063,1.000977,15.99951,15.99951,15.12256
2014,-0.25,-0.0625,0,-0.01708984,0.01660156,1.028809,15.99951,15.99951,15.11475
2018,0.0625,-0.25,-0.0625,-0.004882813,0.004882813,0.9775391,15.99951,15.99951,15.11475
2021,0,-0.0625,0.0625,0.01025391,0.0009765625,0.9931641,15.99951,15.99951,15.11475
2023,-0.0625,0.125,0,-0.004882813,0.01660156,0.9775391,15.99951,15.99951,15.11475
2025,-0.0625,-0.0625,0,-0.01708984,0.008789063,0.9931641,15.99951,15.99951,15.1123
2027,0,-0.1875,0,0.006347656,0.004882813,1.004883,15.99951,15.99951,15.1123
2029,-0.25,0,0,0.01025391,0.02050781,0.9931641,15.99951,15.99951,15.1123
2031,-0.1875,-0.25,0.1875,-0.01318359,0.03613281,1.000977,15.99951,15.99951,15.10449
2033,-0.3125,0,-0.1875,0.01025391,0.0009765625,1.020996,15.99951,15.99951,15.10449
2035,0,0,-0.125,-0.01708984,0.0009765625,1.004883,15.99951,15.99951,15.10449
2037,0.0625,0.125,0.0625,-0.02880859,-0.01416016,1.013184,15.99951,15.99951,15.10449
2039,-0.125,-0.1875,0,-0.004882813,0.0009765625,0.9853516,15.99951,15.99951,15.12012
2041,-0.1875,-0.0625,0,-0.008789063,0.004882813,1.004883,15.99951,15.99951,15.12012
2043,-0.125,0,-0.125,-0.01318359,0.02441406,1.013184,15.99951,15.99951,15.12012
2045,0,0,0,0.006347656,0.02050781,1.01709,15.99951,15.99951,15.11768
2047,-0.0625,0.0625,0.0625,0.002441406,0.01269531,0.9775391,15.99951,15.99951,15.11768
2049,0,-0.0625,0.125,-0.004882813,-0.002441406,0.9853516,15.99951,15.99951,15.11768
2051,-0.1875,-0.1875,0.3125,-0.004882813,0.004882813,0.9853516,15.99951,15.99951,15.12012
2054,0.0625,-0.0625,-0.125,-0.008789063,0.02050781,1.000977,15.99951,15.99951,15.12012
2056,0.125,0,-0.0625,-0.004882813,0.008789063,1.000977,15.99951,15.99951,15.12012
2058,0,0,0.0625,0.006347656,0.004882813,1.036621,15.99951,15.99951,15.12012
2060,0,-0.1875,0.0625,-0.02490234,-0.01416016,0.9736328,15.99951,15.99951,15.10938
2062,0,0,-0.25,-0.008789063,0.02832031,0.9736328,15.99951,15.99951,15.10938
2064,-0.125,-0.0625,0.0625,0.01025391,0.004882813,0.9892578,15.99951,15.99951,15.10938
2066,0.0625,0,0,-0.01318359,0.03222656,1.020996,15.99951,15.99951,15.11768
2068,0,0,-0.1875,0.006347656,0.02832031,0.9970703,15.99951,15.99951,15.11768
2070,0.0625,0,0.0625,0.01025391,0.01660156,1.000977,15.99951,15.99951,15.11768
2072,0.0625,-0.0625,0,-0.01708984,-0.002441406,1.008789,15.99951,15.99951,15.10449
2074,0.0625,-0.0625,-0.25,-0.02099609,0.03222656,1.028809,15.99951,15.99951,15.10449
2076,0.1875,-0.1875,-0.125,-0.01708984,0.004882813,0.9814453,15.99951,15.99951,15.10449
2078,-0.125,-0.125,-0.25,0.002441406,0.01269531,1.004883,15.99951,15.99951,15.10449
2080,-0.0625,0,0.125,-0.008789063,0.008789063,1.024902,15.99951,15.99951,15.12012
2082,0.0625,-0.25,0,0.01416016,0.01660156,1.000977,15.99951,15.99951,15.12012
2084,-0.125,-0.1875,0.1875,-0.0009765625,0.008789063,1.008789,15.99951,15.99951,15.12012
2087,-0.0625,-0.125,-0.0625,0.03369141,0.01269531,0.9736328,15.99951,15.99951,15.1123
2089,-0.1875,0,0.0625,-0.0009765625,-0.006347656,0.9697266,15.99951,15.99951,15.1123
2091,0.1875,-0.1875,-0.125,0.03369141,-0.002441406,1.000977,15.99951,15.99951,15.1123
2093,-0.0625,0,0.0625,0.01025391,0.008789063,0.9614258,15.99951,15.99951,15.1123
2095,-0.1875,0,0,-0.01708984,0.02441406,0.9892578,15.99951,15.99951,15.11475
2097,-0.125,0.1875,0.125,0.01416016,0.03222656,0.9853516,15.99951,15.99951,15.11475
2099,-0.0625,-0.0625,0,-0.0009765625,0.01660156,1.028809,15.99951,15.99951,15.11475
2101,-0.125,0,-0.125,-0.0009765625,0.03222656,0.9931641,15.99951,15.99951,15.10693
2103,0,-0.0625,-0.125,-0.0009765625,0.03613281,0.9814453,15.99951,15.99951,15.10693
2105,0.125,-0.125,0,-0.02099609,0.008789063,1.020996,15.99951,15.99951,15.10693
2107,-0.1875,0,0,-0.02880859,-0.01806641,0.9892578,15.99951,15.99951,15.10156
2109,0,0,0,-0.008789063,0.01269531,0.9970703,15.99951,15.99951,15.10156
2111,-0.1875,-0.3125,0,-0.02490234,0.0009765625,1.013184,15.99951,15.99951,15.10156
2113,0,0,0,-0.02099609,0.02050781,0.9814453,15.99951,15.99951,15.10156
2115,-0.1875,-0.1875,0.1875,0.002441406,0.01269531,0.9697266,15.99951,15.99951,15.12012
2117,-0.1875,0,0,-0.004882813,0.01660156,1.008789,15.99951,15.99951,15.12012
2120,-0.25,0.125,-0.0625,0.002441406,0.008789063,1.020996,15.99951,15.99951,15.12012
2122,0,-0.375,0.125,-0.01318359,0.01269531,0.9970703,15.99951,15.99951,15.10156
2124,-0.0625,-0.0625,-0.125,-0.01708984,0.02441406,0.9697266,15.99951,15.99951,15.10156
2126,-0.0625,-0.125,0,0.006347656,0.01269531,0.9697266,15.99951,15.99951,15.10156
2128,0,0,0,0.01416016,-0.002441406,0.9892578,15.99951,15.99951,15.10156
2130,0,-0.125,0,-0.004882813,0.01269531,1.008789,15.99951,15.99951,15.12256
2132,-0.1875,-0.125,0,-0.01708984,0.02050781,1.000977,15.99951,15.99951,15.12256
2134,0.0625,-0.1875,0,-0.01318359,-0.006347656,0.9775391,15.99951,15.99951,15.12256
2136,-0.125,-0.125,0,-0.004882813,0.01269531,1.004883,15.99951,15.99951,15.10938
2138,-0.125,-0.1875,-0.0625,-0.0009765625,0.004882813,1.028809,15.99951,15.99951,15.10938
2140,0,0,0,0.002441406,0.008789063,1.013184,15.99951,15.99951,15.10938
2142,-0.0625,0,0,0.01416016,0.0009765625,1.036621,15.99951,15.99951,15.1123
2144,0,-0.1875,-0.0625,-0.01318359,0.008789063,1.020996,15.99951,15.99951,15.1123
2146,0.125,-0.25,0,-0.01318359,0.02441406,0.9970703,15.99951,15.99951,15.1123
2148,-0.0625,-0.125,0.0625,0.02197266,0.01660156,0.9458008,15.99951,15.99951,15.1123
2151,0.0625,-0.125,0,-0.02490234,0.008789063,0.9892578,15.99951,15.99951,15.09912
2154,0,0,-0.0625,0.04199219,0.01660156,1.020996,15.99951,15.99951,15.09912
2156,0,-0.1875,-0.0625,0.006347656,0.02832031,0.9892578,15.99951,15.99951,15.09912
2158,0,-0.125,-0.0625,-0.01318359,0.01269531,0.9814453,15.99951,15.99951,15.1123
2160,-0.125,0,-0.0625,-0.01318359,0.01269531,1.000977,15.99951,15.99951,15.1123
2162,-0.0625,-0.125,0,0.02197266,0.008789063,0.9892578,15.99951,15.99951,15.1123
2164,0,0,-0.125,0.006347656,0.0009765625,1.004883,15.99951,15.99951,15.1123
2166,0.1875,-0.1875,0,-0.008789063,0.01269531,1.020996,15.99951,15.99951,15.1123
2168,0,0.0625,0,-0.02880859,0.008789063,0.9736328,15.99951,15.99951,15.1123
2170,0,-0.1875,0.0625,-0.02880859,0.01660156,1.01709,15.99951,15.99951,15.1123
2172,0.125,-0.25,0,-0.004882813,0.01660156,1.008789,15.99951,15.99951,15.1123
2174,0,-0.125,0,-0.004882813,0.0009765625,0.9931641,15.99951,15.99951,15.1123
2176,0.125,-0.1875,-0.125,-0.004882813,-0.002441406,0.9892578,15.99951,15.99951,15.1123
2178,0.0625,0,0.125,0.002441406,0.03222656,1.020996,15.99951,15.99951,15.11768
2180,-0.125,-0.3125,0.125,-0.02880859,0.04052734,1.004883,15.99951,15.99951,15.11768
2182,-0.0625,0.0625,0.0625,-0.01318359,0.004882813,0.9892578,15.99951,15.99951,15.11768
2184,-0.125,-0.0625,0,0.03369141,0.02441406,1.004883,15.99951,15.99951,15.11768
2187,0.0625,0,0.0625,-0.008789063,0.02050781,0.9775391,15.99951,15.99951,15.11768
2189,0,0,0,-0.008789063,0.02441406,0.9853516,15.99951,15.99951,15.11768
2191,0.0625,-0.125,-0.0625,-0.0009765625,0.0009765625,0.9853516,15.99951,15.99951,15.11768
2193,-0.0625,-0.0625,0.0625,-0.02490234,0.02441406,1.000977,15.99951,15.99951,15.11475
2195,-0.1875,0.0625,-0.0625,0.002441406,0.04443359,0.9814453,15.99951,15.99951,15.11475
2197,0.125,-0.1875,0,-0.02880859,0.008789063,0.9970703,15.99951,15.99951,15.11475
2199,0,-0.125,0,0.01025391,0.0009765625,1.020996,15.99951,15.99951,15.11768
2201,-0.0625,-0.0625,0.0625,-0.004882813,0.0009765625,1.008789,15.99951,15.99951,15.11768
2203,0,-0.125,0.0625,-0.0009765625,0.03222656,1.004883,15.99951,15.99951,15.11768
2205,-0.125,0,0,-0.01318359,-0.01806641,0.9536133,15.99951,15.99951,15.11768
2207,0,-0.125,0,0.01025391,0.01269531,1.004883,15.99951,15.99951,15.10449
2209,-0.0625,0,-0.125,0.01416016,0.004882813,1.008789,15.99951,15.99951,15.10449
2211,-0.1875,0,0,-0.01708984,-0.01025391,1.036621,15.99951,15.99951,15.10449
2213,-0.0625,0.0625,0.0625,-0.01318359,0.02441406,0.9970703,15.99951,15.99951,15.1123
2215,0,-0.1875,-0.0625,-0.02490234,0.01269531,1.024902,15.99951,15.99951,15.1123
2217,-0.125,0,0.0625,-0.01318359,0.01660156,1.024902,15.99951,15.99951,15.1123
2220,0,-0.25,0.125,-0.004882813,0.02832031,0.9970703,15.99951,15.99951,15.1123
2222,0,-0.1875,0.0625,-0.0009765625,0.0009765625,1.004883,15.99951,15.99951,15.10693
2224,0,0.1875,0,-0.01708984,0.004882813,0.9775391,15.99951,15.99951,15.10693
2226,0,-0.0625,0,-0.004882813,0.004882813,1.008789,15.99951,15.99951,15.10693
2228,0.0625,-0.0625,0.125,0.01806641,0.004882813,0.9775391,15.99951,15.99951,15.10693
2230,-0.0625,0.0625,0.1875,-0.02099609,0.01269531,1.000977,15.99951,15.99951,15.10693
2232,-0.375,0,0.0625,0.02587891,-0.006347656,1.036621,15.99951,15.99951,15.10693
2234,0.125,-0.0625,0.0625,-0.02099609,0.008789063,0.9814453,15.99951,15.99951,15.1123
2236,0.0625,0.0625,-0.1875,-0.02490234,0.01269531,1.000977,15.99951,15.99951,15.1123
2238,0,0,-0.125,-0.008789063,0.008789063,0.9970703,15.99951,15.99951,15.1123
2240,-0.0625,0,0,-0.008789063,0.0009765625,1.020996,15.99951,15.99951,15.1123
2242,0.125,-0.125,-0.0625,0.01025391,0.01269531,0.9853516,15.99951,15.99951,15.10156
2244,-0.125,-0.0625,0,0.01025391,0.02832031,0.9814453,15.99951,15.99951,15.10156
2246,0.125,0,0.1875,0.006347656,0.008789063,0.9736328,15.99951,15.99951,15.10156
2248,-0.0625,0.1875,0.125,-0.008789063,0.02050781,0.9892578,15.99951,15.99951,15.11475
2250,0,-0.1875,0,0.006347656,0.02050781,0.9814453,15.99951,15.99951,15.11475
2253,-0.0625,-0.25,0,-0.0009765625,0.02441406,1.036621,15.99951,15.99951,15.11475
2255,-0.0625,-0.0625,0,0.002441406,0.004882813,0.9970703,15.99951,15.99951,15.11475
2257,0,0.125,0,-0.0009765625,0.0009765625,1.008789,15.99951,15.99951,15.10938
2259,0,-0.125,0,-0.01708984,0.004882813,1.01709,15.99951,15.99951,15.10938
2261,0,0,0.0625,-0.01708984,0.004882813,1.013184,15.99951,15.99951,15.10938
2263,0,-0.1875,0.1875,-0.01708984,0.02441406,1.020996,15.99951,15.99951,15.12256
2265,-0.0625,-0.0625,0,-0.008789063,-0.01025391,0.9931641,15.99951,15.99951,15.12256
2267,-0.0625,-0.0625,0,-0.0009765625,0.02441406,1.020996,15.99951,15.99951,15.12256
2269,0,0.0625,0.25,-0.01318359,0.0009765625,1.013184,15.99951,15.99951,15.1123
2271,0.0625,-0.125,0,0.006347656,0.03222656,0.9931641,15.99951,15.99951,15.1123
2273,-0.0625,0.0625,0,-0.02490234,-0.002441406,1.000977,15.99951,15.99951,15.1123
2275,-0.125,-0.25,0.125,-0.01708984,0.02050781,0.9970703,15.99951,15.99951,15.1123
2277,0,-0.0625,-0.0625,-0.01708984,0.01660156,0.9736328,15.99951,15.99951,15.10938
2279,0,-0.125,0.1875,-0.0009765625,-0.02587891,0.9736328,15.99951,15.99951,15.10938
2281,0.0625,0.1875,0,-0.02099609,0.02441406,0.9970703,15.99951,15.99951,15.10938
2285,-0.0625,-0.125,0,0.002441406,0.0009765625,1.020996,15.99951,15.99951,15.11768
2288,-0.1875,0.0625,0,0.01025391,0.01269531,1.013184,15.99951,15.99951,15.11768
2290,0.0625,-0.25,0,-0.0009765625,0.02441406,1.013184,15.99951,15.99951,15.11768
2292,-0.1875,-0.0625,0,-0.01708984,0.02441406,1.004883,15.99951,15.99951,15.11768
2294,-0.125,-0.125,0,-0.01318359,0.03222656,0.9931641,15.99951,15.99951,15.11768
2296,0,-0.0625,0,0.002441406,0.008789063,1.020996,15.99951,15.99951,15.11768
2298,-0.1875,-0.0625,0,-0.02880859,0.01269531,0.9892578,15.99951,15.99951,15.11768
2300,0.1875,-0.0625,-0.0625,-0.02490234,0.01660156,1.024902,15.99951,15.99951,15.11768
2302,-0.0625,0,0,-0.01318359,0.02441406,0.9775391,15.99951,15.99951,15.11768
2304,-0.25,0,0,-0.02099609,0.01660156,0.9775391,15.99951,15.99951,15.11768
2306,0.0625,0,-0.1875,-0.02880859,-0.002441406,0.9970703,15.99951,15.99951,15.10693
2308,0,-0.125,0.1875,0.002441406,0.01660156,1.032715,15.99951,15.99951,15.10693
2310,0,0.0625,0,-0.01708984,0.0009765625,1.028809,15.99951,15.99951,15.10693
2312,-0.125,0,0,-0.02490234,0.01269531,1.000977,15.99951,15.99951,15.10693
2314,-0.125,0,0.0625,-0.03271484,0.01269531,0.9931641,15.99951,15.99951,15.11475
2316,-0.0625,-0.1875,-0.125,0.002441406,0.01269531,0.9853516,15.99951,15.99951,15.11475
2318,-0.0625,-0.1875,-0.0625,-0.008789063,-0.01025391,0.9614258,15.99951,15.99951,15.11475
2321,-0.0625,0.25,0.1875,-0.03271484,0.0009765625,0.9970703,15.99951,15.99951,15.10938
2323,0,-0.0625,-0.1875,0.002441406,0.02050781,1.020996,15.99951,15.99951,15.10938
2325,-0.125,0,0,0.006347656,0.004882813,1.008789,15.99951,15.99951,15.10938
2327,-0.0625,-0.1875,-0.0625,-0.0009765625,-0.006347656,0.9853516,15.99951,15.99951,15.10938
2329,-0.0625,0,0,-0.02099609,0.01660156,1.000977,15.99951,15.99951,15.10938
2331,0.1875,0,0.0625,0.006347656,0.01269531,1.004883,15.99951,15.99951,15.10938
2333,0,0.0625,-0.125,0.006347656,0.01269531,0.9892578,15.99951,15.99951,15.10938
2335,0,-0.1875,0.125,-0.01318359,-0.006347656,1.013184,15.99951,15.99951,15.10449
2337,0,-0.25,0.0625,-0.0009765625,0.008789063,1.01709,15.99951,15.99951,15.10449
2339,-0.125,0,0.0625,0.01806641,0.004882813,0.9892578,15.99951,15.99951,15.10449
2341,-0.0625,-0.0625,0,-0.0009765625,0.02832031,0.9970703,15.99951,15.99951,15.11475
2343,0.1875,0,0.1875,0.01416016,0.008789063,0.9892578,15.99951,15.99951,15.11475
2345,-0.1875,-0.125,0.0625,-0.01708984,0.01660156,1.004883,15.99951,15.99951,15.11475
2347,0,-0.1875,0,-0.01318359,0.01660156,1.032715,15.99951,15.99951,15.11475
2349,-0.1875,-0.0625,0,0.01025391,0.04833984,1.01709,15.99951,15.99951,15.1123
2351,0,0,0,-0.0009765625,0.004882813,0.9931641,15.99951,15.99951,15.1123
2354,-0.0625,-0.0625,0.0625,-0.0009765625,0.03613281,1.008789,15.99951,15.99951,15.1123
2356,0,0.0625,0,0.02587891,0.02050781,0.9814453,15.99951,15.99951,15.1123
2358,0,0.125,-0.125,-0.008789063,0.04052734,0.9775391,15.99951,15.99951,15.1123
2360,0,-0.125,0,-0.01318359,-0.006347656,1.028809,15.99951,15.99951,15.1123
2362,0,-0.125,0.0625,-0.008789063,0.03613281,1.008789,15.99951,15.99951,15.1123
2364,0,-0.25,-0.0625,-0.0009765625,0.0009765625,1.004883,15.99951,15.99951,15.1123
2366,0.0625,0,0.0625,-0.01318359,0.02832031,0.9892578,15.99951,15.99951,15.1123
2368,0,0,0,-0.008789063,0.0009765625,0.9970703,15.99951,15.99951,15.1123
2370,-0.0625,-0.0625,0.125,-0.01708984,-0.01025391,0.9853516,15.99951,15.99951,15.11475
2372,-0.0625,0,0.125,-0.008789063,0.008789063,0.9931641,15.99951,15.99951,15.11475
2374,-0.125,-0.1875,-0.125,-0.008789063,0.02050781,1.01709,15.99951,15.99951,15.11475
2376,0,0,0,-0.0009765625,0.04052734,1.024902,15.99951,15.99951,15.12012
2378,0,-0.0625,-0.125,-0.004882813,-0.006347656,0.9775391,15.99951,15.99951,15.12012
2380,0,0,0.0625,-0.008789063,0.008789063,1.040527,15.99951,15.99951,15.12012
2382,-0.0625,-0.0625,0,-0.01318359,0.0009765625,1.000977,15.99951,15.99951,15.12012
2384,-0.0625,-0.375,0.125,0.006347656,0.01269531,1.004883,15.99951,15.99951,15.10449
2387,-0.0625,0,0.0625,0.02197266,0.04443359,0.9931641,15.99951,15.99951,15.10449
2389,-0.0625,0,-0.125,0.002441406,0.02832031,0.9931641,15.99951,15.99951,15.10449
2391,0.125,-0.0625,0,-0.01708984,0.0009765625,0.9814453,15.99951,15.99951,15.11475
2393,0.125,-0.125,0,-0.02099609,0.01269531,0.9853516,15.99951,15.99951,15.11475
2395,-0.125,0,-0.125,-0.01708984,0.0009765625,0.9931641,15.99951,15.99951,15.11475
2397,0.125,-0.0625,0,0.01806641,-0.002441406,0.9814453,15.99951,15.99951,15.11475
2399,0,0,0,0.01025391,-0.002441406,0.9697266,15.99951,15.99951,15.11475
2401,-0.125,-0.25,0,-0.02099609,0.02832031,1.020996,15.99951,15.99951,15.11475
2403,0.0625,0.1875,0.125,-0.01318359,0.01660156,1.008789,15.99951,15.99951,15.11475
2405,-0.3125,-0.125,0,-0.01318359,0.0009765625,0.9892578,15.99951,15.99951,15.11475
2407,0,0,0.0625,0.006347656,0.02832031,0.9853516,15.99951,15.99951,15.11475
2409,-0.1875,-0.125,0,0.006347656,0.0009765625,1.040527,15.99951,15.99951,15.11475
2411,0.125,-0.0625,0,0.02197266,0.01660156,1.000977,15.99951,15.99951,15.11768
2413,-0.125,-0.1875,0,-0.008789063,0.05224609,1.004883,15.99951,15.99951,15.11768
2415,-0.1875,0,-0.0625,-0.02490234,0.02832031,1.013184,15.99951,15.99951,15.11768
2418,-0.0625,-0.0625,0,-0.03271484,-0.002441406,1.052246,15.99951,15.99951,15.11768
2421,0,-0.375,-0.0625,-0.01708984,0.01660156,0.9892578,15.99951,15.99951,15.11768
2423,0,-0.0625,0.0625,-0.03662109,0.01660156,1.032715,15.99951,15.99951,15.11768
2425,0,0,0,-0.008789063,-0.006347656,1.020996,15.99951,15.99951,15.11768
2427,-0.0625,0,-0.25,-0.004882813,0.03222656,1.000977,15.99951,15.99951,15.10449
2429,-0.1875,0,0,0.02587891,0.04833984,1.020996,15.99951,15.99951,15.10449
2431,-0.0625,-0.0625,-0.0625,-0.02490234,0.008789063,1.008789,15.99951,15.99951,15.10449
2433,0,0.125,0,0.02197266,-0.002441406,0.9970703,15.99951,15.99951,15.10938
2435,0,-0.125,-0.0625,-0.0009765625,0.01269531,1.013184,15.99951,15.99951,15.10938
2437,0,0,0.0625,-0.01708984,0.004882813,1.013184,15.99951,15.99951,15.10938
2439,-0.125,-0.0625,0.0625,0.01806641,0.02441406,1.000977,15.99951,15.99951,15.10938
2441,-0.125,-0.0625,0,-0.01708984,0.02050781,1.000977,15.99951,15.99951,15.12012
2443,-0.3125,-0.25,0.0625,-0.01318359,0.01269531,1.008789,15.99951,15.99951,15.12012
2445,0.0625,-0.25,0.125,-0.01708984,0.02050781,1.004883,15.99951,15.99951,15.12012
2447,0,0,0.1875,-0.01318359,0.02832031,1.020996,15.99951,15.99951,15.12256
2449,-0.0625,0.0625,-0.1875,0.01416016,-0.002441406,1.004883,15.99951,15.99951,15.12256
2451,0.1875,-0.125,0,-0.01318359,0.02050781,1.008789,15.99951,15.99951,15.12256
2454,-0.0625,-0.1875,-0.0625,-0.02490234,0.0009765625,1.008789,15.99951,15.99951,15.11768
2456,-0.25,-0.375,0.125,-0.02099609,0.02441406,0.9892578,15.99951,15.99951,15.11768
2458,0,0.0625,0.0625,-0.01318359,-0.02978516,1.008789,15.99951,15.99951,15.11768
2460,-0.0625,-0.1875,-0.0625,0.002441406,0.004882813,0.9970703,15.99951,15.99951,15.11768
2462,0,0,0,-0.03662109,0.02441406,1.004883,15.99951,15.99951,15.1123
2464,0,-0.3125,-0.25,-0.01708984,0.04443359,1.004883,15.99951,15.99951,15.1123
2466,-0.3125,-0.3125,0,-0.004882813,0.004882813,1.020996,15.99951,15.99951,15.1123
2468,-0.1875,-0.125,0.0625,0.01025391,0.01660156,0.9775391,15.99951,15.99951,15.11475
2470,-0.0625,-0.375,0.0625,0.01806641,0.02832031,0.9892578,15.99951,15.99951,15.11475
2472,0,0,0.0625,-0.01708984,0.01269531,1.000977,15.99951,15.99951,15.11475
2474,0.25,0,0.0625,-0.008789063,0.02832031,1.024902,15.99951,15.99951,15.11475
2476,-0.25,0,0,-0.02490234,-0.002441406,1.020996,15.99951,15.99951,15.1123
2478,-0.125,-0.125,0.0625,-0.06445313,-0.002441406,1.004883,15.99951,15.99951,15.1123
2480,-0.0625,-0.125,-0.0625,0.01416016,0.008789063,0.9931641,15.99951,15.99951,15.1123
2482,0.0625,-0.1875,0,0.002441406,0.02050781,0.9892578,15.99951,15.99951,15.10449
2484,0,0,-0.1875,-0.02490234,0.01660156,1.032715,15.99951,15.99951,15.10449
2487,0,0,0.125,0.02587891,0.01269531,0.9853516,15.99951,15.99951,15.10449
2489,-0.1875,-0.0625,0.125,-0.02880859,-0.002441406,1.01709,15.99951,15.99951,15.10449
2491,-0.125,-0.0625,0,-0.008789063,0.004882813,0.9931641,15.99951,15.99951,15.10449
2493,-0.0625,-0.25,0.0625,-0.008789063,0.02832031,0.9853516,15.99951,15.99951,15.10449
2495,0,0,0,-0.004882813,0.004882813,1.028809,15.99951,15.99951,15.10449
2497,0,0.125,0.1875,0.01025391,0.01660156,1.000977,15.99951,15.99951,15.11475
2499,0,0,-0.0625,-0.01318359,0.01269531,1.000977,15.99951,15.99951,15.11475
2501,0,-0.1875,0,0.02197266,0.02441406,0.9853516,15.99951,15.99951,15.11475
2503,-0.0625,0,-0.0625,0.002441406,0.02832031,1.020996,15.99951,15.99951,15.11475
2505,0.0625,-0.3125,-0.0625,0.006347656,-0.002441406,1.008789,15.99951,15.99951,15.11475
2507,0.125,0,0.0625,-0.01318359,0.008789063,1.000977,15.99951,15.99951,15.11475
2509,0,0.125,-0.0625,0.002441406,-0.01416016,0.9697266,15.99951,15.99951,15.11475
2511,-0.0625,0,0,-0.008789063,-0.01806641,1.020996,15.99951,15.99951,15.11768
2513,0,0,0,0.006347656,0.01269531,1.004883,15.99951,15.99951,15.11768
2515,0,-0.125,0,-0.01708984,0.02441406,0.9970703,15.99951,15.99951,15.11768
2517,-0.125,-0.0625,-0.1875,0.01416016,-0.02197266,0.9892578,15.99951,15.99951,15.10449
2520,0,-0.1875,0,-0.008789063,-0.01416016,1.024902,15.99951,15.99951,15.10449
2522,0,0,0,-0.02099609,-0.002441406,0.9536133,15.99951,15.99951,15.10449
2524,-0.125,-0.1875,0,-0.008789063,0.008789063,1.024902,15.99951,15.99951,15.11475
2526,-0.0625,-0.125,-0.125,-0.02099609,0.01269531,0.9892578,15.99951,15.99951,15.11475
2528,-0.0625,-0.125,0,-0.008789063,0.03222656,0.9970703,15.99951,15.99951,15.11475
2530,0.0625,0,0.1875,-0.008789063,0.004882813,0.9970703,15.99951,15.99951,15.11475
2532,0.0625,0,0,0.01025391,0.01269531,0.9814453,15.99951,15.99951,15.11768
2534,-0.25,-0.25,0,-0.008789063,0.02441406,1.036621,15.99951,15.99951,15.11768
2536,0,-0.0625,0.0625,-0.01708984,-0.002441406,1.020996,15.99951,15.99951,15.11768
2538,0.1875,-0.125,0.0625,-0.008789063,0.01660156,0.9814453,15.99951,15.99951,15.10938
2540,-0.1875,-0.1875,0.3125,0.006347656,0.03613281,1.000977,15.99951,15.99951,15.10938
2542,0,0,0,0.01806641,0.03222656,1.013184,15.99951,15.99951,15.10938
2544,0,-0.0625,0.0625,0.002441406,0.02050781,1.020996,15.99951,15.99951,15.11768
2546,0,0.125,-0.125,-0.02490234,0.01269531,1.01709,15.99951,15.99951,15.11768
2548,-0.1875,-0.0625,0,-0.01708984,0.004882813,1.008789,15.99951,15.99951,15.11768
2552,-0.1875,-0.125,0.1875,0.02587891,0.03222656,1.004883,15.99951,15.99951,15.11768
2555,0,0.1875,0,0.01025391,0.01660156,1.000977,15.99951,15.99951,15.1123
2557,0.0625,-0.125,-0.0625,0.002441406,0.01269531,0.9931641,15.99951,15.99951,15.1123
2559,0,-0.1875,0.125,-0.01708984,-0.002441406,1.008789,15.99951,15.99951,15.1123
2561,-0.125,0,0.125,-0.01318359,-0.01025391,0.9775391,15.99951,15.99951,15.10693
2563,0,-0.375,0.125,-0.01318359,0.01660156,0.9970703,15.99951,15.99951,15.10693
2565,-0.125,-0.1875,0.0625,-0.008789063,0.0009765625,0.9970703,15.99951,15.99951,15.10693
2567,-0.0625,-0.0625,0,0.01806641,0.01660156,1.008789,15.99951,15.99951,15.10693
2569,0,0,0.125,-0.0009765625,0.008789063,1.028809,15.99951,15.99951,15.11768
2571,0,-0.125,-0.1875,-0.008789063,0.01660156,0.9853516,15.99951,15.99951,15.11768
2573,-0.3125,-0.25,0.125,-0.01318359,0.004882813,0.9931641,15.99951,15.99951,15.11768
2575,-0.1875,-0.25,-0.0625,0.002441406,0.01660156,1.036621,15.99951,15.99951,15.11768
2577,0,-0.125,-0.125,-0.01708984,0.01660156,0.9970703,15.99951,15.99951,15.11768
2579,-0.0625,0.0625,0,0.006347656,0.0009765625,1.020996,15.99951,15.99951,15.11768
2581,0,0,0.0625,-0.01318359,0.01660156,1.000977,15.99951,15.99951,15.12256
2583,0.0625,-0.0625,0,-0.02099609,0.02441406,0.9775391,15.99951,15.99951,15.12256
2585,0,-0.0625,0,-0.04052734,0.01269531,1.000977,15.99951,15.99951,15.12256
2588,0.125,0.0625,-0.0625,0.01416016,-0.01025391,0.9814453,15.99951,15.99951,15.12256
2590,0.0625,-0.0625,-0.25,-0.0009765625,0.0009765625,1.020996,15.99951,15.99951,15.11768
2592,0,-0.125,-0.125,0.01025391,0.01269531,1.013184,15.99951,15.99951,15.11768
2594,0,-0.125,-0.125,-0.008789063,0.03222656,0.9931641,15.99951,15.99951,15.11768
2596,0,-0.125,0,-0.004882813,0.0009765625,1.020996,15.99951,15.99951,15.10449
2598,-0.125,-0.25,0,0.02978516,0.01269531,0.9931641,15.99951,15.99951,15.10449
2600,0.125,-0.125,0,-0.0009765625,0.02441406,0.9736328,15.99951,15.99951,15.10449
2602,0.0625,0,0.0625,0.04199219,0.0009765625,0.9892578,15.99951,15.99951,15.10449
2604,-0.0625,0,-0.1875,0.002441406,0.02050781,0.9614258,15.99951,15.99951,15.1123
2606,0,-0.125,0,-0.02490234,0.02050781,1.004883,15.99951,15.99951,15.1123
2608,-0.0625,-0.0625,0.125,-0.008789063,0.01269531,0.9970703,15.99951,15.99951,15.1123
2610,0.0625,-0.125,0.125,0.002441406,-0.01806641,0.9658203,15.99951,15.99951,15.10156
2612,-0.3125,-0.1875,0.125,-0.02490234,0.004882813,0.9892578,15.99951,15.99951,15.10156
2614,-0.0625,0,-0.0625,-0.008789063,0.01269531,1.000977,15.99951,15.99951,15.10156
2616,0.1875,-0.0625,0,-0.008789063,0.01269531,0.9658203,15.99951,15.99951,15.11475
2618,-0.1875,-0.0625,0,-0.008789063,-0.006347656,1.008789,15.99951,15.99951,15.11475
2621,0.0625,-0.25,0.125,-0.02099609,0.02832031,0.9931641,15.99951,15.99951,15.11475
2623,0,0.0625,-0.0625,-0.03662109,0.01269531,0.9814453,15.99951,15.99951,15.11475
2625,0,0,-0.0625,0.002441406,0.0009765625,1.004883,15.99951,15.99951,15.1123
2627,0,0,-0.0625,-0.008789063,0.01660156,1.020996,15.99951,15.99951,15.1123
2629,0,-0.0625,0,-0.008789063,0.008789063,1.024902,15.99951,15.99951,15.1123
2631,0.0625,-0.125,0.0625,-0.01318359,0.004882813,1.008789,15.99951,15.99951,15.1123
2633,0,-0.0625,-0.0625,0.006347656,0.02441406,0.9931641,15.99951,15.99951,15.1123
2635,0.0625,0,0.0625,-0.02880859,0.0009765625,0.9931641,15.99951,15.99951,15.1123
2637,0,-0.25,0,-0.01708984,0.02832031,1.028809,15.99951,15.99951,15.1123
2639,0,-0.0625,0.0625,-0.01318359,-0.01025391,1.004883,15.99951,15.99951,15.1123
2641,0,0,-0.125,-0.03271484,0.01269531,0.9970703,15.99951,15.99951,15.1123
2643,-0.125,-0.0625,-0.1875,-0.004882813,0.008789063,0.9970703,15.99951,15.99951,15.1123
2645,-0.1875,-0.125,0.0625,-0.02490234,0.03222656,1.000977,15.99951,15.99951,15.10693
2647,-0.125,0,-0.25,-0.02099609,0.02832031,1.013184,15.99951,15.99951,15.10693
2649,0,-0.0625,0,-0.008789063,0.004882813,1.020996,15.99951,15.99951,15.10693
2651,0.0625,-0.0625,0,-0.0009765625,0.02050781,0.9931641,15.99951,15.99951,15.10449
2654,-0.1875,0,0,0.006347656,0.04833984,0.9970703,15.99951,15.99951,15.10449
2656,-0.0625,-0.25,0,-0.004882813,0.01269531,0.9575195,15.99951,15.99951,15.10449
2658,-0.25,-0.3125,0,-0.01318359,0.02832031,1.004883,15.99951,15.99951,15.10449
2660,0.0625,0,0,0.01025391,0.004882813,0.9814453,15.99951,15.99951,15.1123
2662,-0.0625,-0.0625,0.125,-0.02099609,-0.006347656,1.032715,15.99951,15.99951,15.1123
2664,-0.0625,0,0.0625,0.01806641,-0.006347656,1.004883,15.99951,15.99951,15.1123
2666,0,-0.0625,0.0625,-0.02099609,-0.02197266,0.9814453,15.99951,15.99951,15.1123
2668,-0.0625,-0.3125,-0.125,-0.02490234,-0.002441406,1.000977,15.99951,15.99951,15.1123
2670,0.1875,0,0.125,-0.008789063,0.01660156,1.008789,15.99951,15.99951,15.1123
2672,-0.125,0,0,-0.01318359,0.004882813,1.008789,15.99951,15.99951,15.11768
2674,0,0,0.125,-0.008789063,0.01660156,0.9853516,15.99951,15.99951,15.11768
2676,0.1875,-0.3125,0.0625,-0.0009765625,0.03613281,1.000977,15.99951,15.99951,15.11768
2678,-0.0625,0.25,0,0.002441406,-0.01416016,1.020996,15.99951,15.99951,15.11768
2680,0,-0.25,-0.0625,0.02587891,0.01660156,1.004883,15.99951,15.99951,15.10449
2682,-0.1875,-0.25,0,0.002441406,-0.002441406,0.9970703,15.99951,15.99951,15.10449
2685,0,0.0625,-0.0625,-0.02490234,-0.01025391,0.9892578,15.99951,15.99951,15.10449
2688,-0.0625,-0.0625,-0.1875,-0.008789063,0.01269531,1.01709,15.99951,15.99951,15.11768
2690,-0.1875,0,0.1875,-0.0009765625,0.01660156,1.008789,15.99951,15.99951,15.11768
2692,-0.125,-0.125,-0.0625,-0.01318359,0.03222656,1.008789,15.99951,15.99951,15.11768
2694,0,-0.0625,0.125,-0.004882813,0.01660156,1.000977,15.99951,15.99951,15.11768
2696,-0.125,-0.0625,0,0.006347656,0.03222656,0.9931641,15.99951,15.99951,15.11475
2698,-0.3125,-0.0625,-0.0625,-0.004882813,0.01269531,0.9892578,15.99951,15.99951,15.11475
2700,0,-0.0625,0.1875,-0.0009765625,-0.02197266,1.024902,15.99951,15.99951,15.11475
2702,0,-0.125,-0.125,-0.004882813,0.008789063,0.9970703,15.99951,15.99951,15.11475
2704,-0.0625,-0.1875,0.125,0.006347656,0.0009765625,1.008789,15.99951,15.99951,15.11475
2706,0,-0.1875,0.1875,-0.0009765625,0.03222656,1.000977,15.99951,15.99951,15.11475
2708,-0.25,-0.1875,0,0.006347656,0.02832031,0.9575195,15.99951,15.99951,15.11475
2710,0,-0.0625,-0.125,0.002441406,0.008789063,0.9736328,15.99951,15.99951,15.11475
2712,-0.3125,-0.1875,0,-0.01708984,0.0009765625,0.9736328,15.99951,15.99951,15.11475
2714,0,0,0.0625,-0.008789063,0.01269531,0.9853516,15.99951,15.99951,15.11475
2716,-0.125,-0.25,-0.0625,-0.01708984,-0.006347656,0.9931641,15.99951,15.99951,15.11768
2718,-0.0625,-0.0625,0,-0.01708984,0.01660156,0.9970703,15.99951,15.99951,15.11768
2721,-0.0625,0,-0.0625,-0.03271484,0.004882813,0.9736328,15.99951,15.99951,15.11768
2723,-0.1875,0,-0.125,-0.0009765625,0.008789063,1.008789,15.99951,15.99951,15.11768
2725,0.0625,0,0.0625,-0.02099609,0.008789063,0.9853516,15.99951,15.99951,15.11768
2727,0,0,0,-0.04052734,0.004882813,1.036621,15.99951,15.99951,15.11768
2729,-0.1875,0,-0.125,-0.04052734,0.02050781,0.9970703,15.99951,15.99951,15.11768
2731,-0.125,-0.0625,0.0625,0.02197266,0.01269531,0.9697266,15.99951,15.99951,15.10938
2733,-0.125,0,0.0625,-0.0009765625,0.02832031,1.004883,15.99951,15.99951,15.10938
2735,0,0.1875,-0.0625,-0.02099609,-0.01025391,0.9892578,15.99951,15.99951,15.10938
2737,0.0625,0,0,-0.03271484,0.02050781,0.9931641,15.99951,15.99951,15.10938
2739,-0.25,0,0,-0.008789063,0.02441406,1.004883,15.99951,15.99951,15.10938
2741,-0.0625,-0.1875,0.0625,0.03369141,0.01660156,0.9970703,15.99951,15.99951,15.10938
2743,-0.1875,0,0,-0.02099609,0.004882813,0.9970703,15.99951,15.99951,15.10938
2745,0.125,-0.0625,-0.0625,-0.01318359,0.004882813,0.9931641,15.99951,15.99951,15.10938
2747,0,-0.125,0.0625,-0.04833984,0.01660156,1.008789,15.99951,15.99951,15.10938
2749,0,0,0,0.002441406,0.01269531,1.013184,15.99951,15.99951,15.10938
2751,-0.3125,-0.1875,0.0625,-0.0009765625,0.02441406,1.000977,15.99951,15.99951,15.1123
2754,0,-0.0625,0,0.006347656,0.0009765625,0.9814453,15.99951,15.99951,15.1123
2756,0.0625,0,0,0.006347656,-0.006347656,0.9853516,15.99951,15.99951,15.1123
2758,0,0.0625,-0.0625,0.002441406,0.004882813,1.004883,15.99951,15.99951,15.1123
2760,-0.25,-0.125,0,-0.01318359,0.008789063,1.01709,15.99951,15.99951,15.1123
2762,0,-0.0625,0,-0.004882813,0.008789063,1.000977,15.99951,15.99951,15.1123
2764,-0.0625,0,0,-0.01318359,-0.002441406,0.9697266,15.99951,15.99951,15.1123
2766,-0.0625,-0.1875,-0.0625,-0.02099609,0.008789063,1.036621,15.99951,15.99951,15.1123
2768,0,0,0.3125,0.01806641,0.01269531,1.008789,15.99951,15.99951,15.1123
2770,-0.3125,0.0625,0,-0.01708984,0.03222656,0.9736328,15.99951,15.99951,15.1123
2772,0,0,0.0625,-0.01318359,0.02832031,0.9970703,15.99951,15.99951,15.11768
2774,0.0625,-0.3125,-0.25,-0.008789063,0.01660156,1.020996,15.99951,15.99951,15.11768
2776,0,-0.1875,0.125,0.04199219,-0.01416016,0.9931641,15.99951,15.99951,15.11768
2778,0,-0.125,-0.125,0.006347656,-0.01416016,0.9970703,15.99951,15.99951,15.11768
2780,0.0625,-0.0625,0.0625,0.006347656,0.004882813,0.9697266,15.99951,15.99951,15.11768
2782,0.0625,0.0625,-0.125,-0.008789063,0.03222656,1.024902,15.99951,15.99951,15.11768
2784,0,0.125,0.1875,-0.01318359,0.0009765625,1.028809,15.99951,15.99951,15.11768
2787,0,-0.1875,-0.0625,-0.008789063,-0.002441406,0.9853516,15.99951,15.99951,15.1123
2789,-0.0625,-0.0625,0,-0.0009765625,0.0009765625,0.9931641,15.99951,15.99951,15.1123
2791,-0.125,-0.1875,0.0625,0.01025391,0.008789063,1.000977,15.99951,15.99951,15.1123
2793,0.1875,0.0625,-0.125,-0.004882813,0.03222656,1.000977,15.99951,15.99951,15.11768
2795,0.0625,-0.0625,0,-0.02880859,0.01269531,0.9970703,15.99951,15.99951,15.11768
2797,-0.0625,0,0.125,-0.008789063,-0.002441406,0.9023438,15.99951,15.99951,15.11768
2799,0,-0.1875,0.0625,0.02197266,0.01269531,0.9931641,15.99951,15.99951,15.11768
2801,0,-0.1875,0,0.01025391,-0.01416016,1.004883,15.99951,15.99951,15.11768
2803,0,0.125,0.0625,-0.02490234,-0.02978516,0.9814453,15.99951,15.99951,15.11768
2805,-0.0625,-0.25,0,0.006347656,-0.01416016,1.004883,15.99951,15.99951,15.11768
2807,0,-0.0625,-0.0625,0.002441406,0.01269531,0.9931641,15.99951,15.99951,15.11475
2809,0.125,-0.1875,0.0625,-0.01708984,0.01269531,1.01709,15.99951,15.99951,15.11475
2811,0,0,0,-0.0009765625,0.004882813,0.9853516,15.99951,15.99951,15.11475
2813,-0.0625,-0.3125,0.0625,-0.01708984,0.008789063,0.9697266,15.99951,15.99951,15.1123
2815,-0.1875,0,0.1875,-0.02099609,0.01660156,0.9931641,15.99951,15.99951,15.1123
2819,0.0625,0.0625,0,-0.02099609,0.0009765625,0.9736328,15.99951,15.99951,15.1123
2822,0,-0.125,0.0625,-0.008789063,-0.002441406,1.028809,15.99951,15.99951,15.1123
2824,0.125,-0.125,0.125,-0.008789063,0.008789063,0.9970703,15.99951,15.99951,15.09619
2826,0,-0.0625,0.0625,-0.02490234,0.01269531,1.01709,15.99951,15.99951,15.09619
2828,0,-0.0625,0,0.01025391,0.004882813,0.9736328,15.99951,15.99951,15.09619
2830,-0.0625,0,-0.0625,-0.01708984,0.02441406,1.004883,15.99951,15.99951,15.09619
2832,0,-0.0625,0,-0.008789063,0.02441406,1.024902,15.99951,15.99951,15.09619
2834,0,0,0.125,0.002441406,0.01660156,1.040527,15.99951,15.99951,15.09619
2836,0,0,0,-0.004882813,0.03613281,1.008789,15.99951,15.99951,15.11475
2838,-0.0625,0,0.25,0.02197266,0.004882813,0.9736328,15.99951,15.99951,15.11475
2840,0,0,-0.0625,0.01806641,0.02832031,0.9892578,15.99951,15.99951,15.11475
2842,0.1875,-0.125,-0.125,0.002441406,0.03222656,0.9931641,15.99951,15.99951,15.11475
2844,0.0625,-0.125,0,-0.01708984,0.0009765625,1.028809,15.99951,15.99951,15.10449
2846,0,-0.125,-0.0625,-0.02099609,0.008789063,1.028809,15.99951,15.99951,15.10449
2848,-0.1875,-0.0625,-0.125,0.01806641,0.01660156,1.000977,15.99951,15.99951,15.10449
2850,-0.125,-0.125,-0.0625,0.01806641,0.01660156,0.9931641,15.99951,15.99951,15.11768
2852,-0.125,0.125,-0.1875,0.006347656,0.02832031,0.9814453,15.99951,15.99951,15.11768
2855,-0.0625,0,-0.1875,0.006347656,0.01660156,1.004883,15.99951,15.99951,15.11768
2857,0.0625,0.1875,0,-0.01318359,0.0009765625,0.9892578,15.99951,15.99951,15.11768
2859,-0.125,-0.3125,0.0625,0.006347656,-0.002441406,0.9892578,15.99951,15.99951,15.11475
2861,-0.125,-0.125,0,-0.03271484,0.01269531,1.020996,15.99951,15.99951,15.11475
2863,0,0,0,0.01025391,0.01269531,1.013184,15.99951,15.99951,15.11475
2865,-0.125,0,0,-0.01318359,-0.006347656,0.9814453,15.99951,15.99951,15.10693
2867,-0.0625,-0.0625,0,0.006347656,0.04443359,1.004883,15.99951,15.99951,15.10693
2869,0,-0.0625,-0.0625,0.002441406,-0.006347656,1.008789,15.99951,15.99951,15.10693
2871,0,0,-0.0625,-0.0009765625,0.0009765625,1.008789,15.99951,15.99951,15.1123
2873,0,-0.125,0,-0.004882813,0.01269531,1.008789,15.99951,15.99951,15.1123
2875,0,-0.125,0,-0.01318359,0.02050781,0.9775391,15.99951,15.99951,15.1123
2877,0,0.125,0,-0.02099609,0.01660156,1.020996,15.99951,15.99951,15.1123
2879,-0.3125,-0.25,0,0.02197266,-0.01416016,1.013184,15.99951,15.99951,15.1123
2881,0.0625,-0.125,0.125,-0.02099609,-0.002441406,1.020996,15.99951,15.99951,15.1123
2883,0.125,-0.125,0,0.01025391,-0.01416016,1.008789,15.99951,15.99951,15.1123
2885,0.0625,-0.0625,0.125,0.01806641,0.004882813,1.020996,15.99951,15.99951,15.11475
2888,0.125,0.1875,-0.0625,-0.004882813,0.01660156,1.004883,15.99951,15.99951,15.11475
2890,-0.125,0,0.0625,0.002441406,0.004882813,0.9931641,15.99951,15.99951,15.11475
2892,0.0625,0,0,-0.02490234,-0.002441406,1.020996,15.99951,15.99951,15.11475
2894,-0.0625,-0.25,0.1875,0.01025391,0.008789063,1.008789,15.99951,15.99951,15.11475
2896,-0.1875,-0.25,-0.125,-0.01708984,0.01660156,0.9853516,15.99951,15.99951,15.11475
2898,-0.0625,-0.0625,0,0.002441406,0.0009765625,1.000977,15.99951,15.99951,15.11475
2900,-0.0625,0,0,-0.01318359,-0.01416016,1.004883,15.99951,15.99951,15.11475
2902,0.125,0,0,-0.01318359,0.01660156,1.000977,15.99951,15.99951,15.11475
2904,0,0.1875,0.0625,-0.01318359,0.04052734,1.004883,15.99951,15.99951,15.11475
2906,-0.0625,-0.0625,0,-0.008789063,0.02441406,0.9970703,15.99951,15.99951,15.10449
2908,0,-0.1875,0.0625,-0.01318359,0.02832031,0.9931641,15.99951,15.99951,15.10449
2910,0.0625,-0.3125,0,0.01025391,0.02441406,0.9931641,15.99951,15.99951,15.10449
2912,-0.25,-0.25,-0.0625,-0.008789063,0.02832031,1.004883,15.99951,15.99951,15.10449
2914,0,-0.125,0,-0.008789063,0.01269531,0.9775391,15.99951,15.99951,15.11475
2916,0.0625,-0.25,0.0625,-0.004882813,-0.002441406,0.9931641,15.99951,15.99951,15.11475
2918,0,0,0.0625,-0.008789063,0.004882813,1.020996,15.99951,15.99951,15.11475
2921,0,-0.0625,0.125,0.01025391,0.02832031,1.032715,15.99951,15.99951,15.10693
2923,-0.0625,0.1875,-0.125,-0.0009765625,0.01660156,1.024902,15.99951,15.99951,15.10693
2925,0,0,0,0.006347656,0.01660156,0.9814453,15.99951,15.99951,15.10693
2927,0.1875,0,-0.1875,-0.01318359,-0.002441406,1.000977,15.99951,15.99951,15.12256
2929,0.0625,-0.125,-0.125,-0.004882813,0.02832031,1.004883,15.99951,15.99951,15.12256
2931,0,-0.1875,-0.125,-0.008789063,0.01269531,0.9931641,15.99951,15.99951,15.12256
2933,0,-0.125,0,-0.004882813,0.02050781,0.9892578,15.99951,15.99951,15.12256
2935,0,0,0,-0.01318359,-0.002441406,0.9892578,15.99951,15.99951,15.11475
2937,-0.0625,0.0625,0,-0.04443359,0.0009765625,0.9970703,15.99951,15.99951,15.11475
2939,0.125,-0.0625,0.0625,-0.008789063,0.03613281,1.004883,15.99951,15.99951,15.11475
2941,-0.125,0,0,-0.02490234,-0.002441406,0.9931641,15.99951,15.99951,15.10693
2943,0,-0.25,0.0625,-0.004882813,0.01660156,1.028809,15.99951,15.99951,15.10693
2945,0,-0.0625,-0.125,0.02197266,-0.01416016,1.008789,15.99951,15.99951,15.10693
2947,0.125,0.125,0.125,-0.02880859,-0.01416016,1.020996,15.99951,15.99951,15.10693
2949,-0.125,0,-0.25,-0.008789063,0.0009765625,0.9970703,15.99951,15.99951,15.10693
2952,0.0625,-0.1875,0,-0.02490234,0.03222656,1.024902,15.99951,15.99951,15.10693
2955,0,-0.0625,-0.125,0.002441406,0.01269531,1.020996,15.99951,15.99951,15.10693
2957,-0.125,-0.125,0.0625,-0.0009765625,0.008789063,1.028809,15.99951,15.99951,15.12012
2959,-0.1875,0,-0.125,-0.004882813,0.01269531,0.9814453,15.99951,15.99951,15.12012
2961,0,0,-0.0625,-0.008789063,0.01660156,0.9931641,15.99951,15.99951,15.12012
2963,0.0625,-0.1875,-0.0625,-0.01708984,0.02832031,1.004883,15.99951,15.99951,15.11475
2965,-0.125,-0.1875,0.125,-0.02099609,0.008789063,0.9775391,15.99951,15.99951,15.11475
2967,-0.25,-0.125,0.25,-0.0009765625,0.02441406,1.004883,15.99951,15.99951,15.11475
2969,-0.0625,-0.125,0,0.01806641,-0.002441406,0.9853516,15.99951,15.99951,15.11475
2971,0,-0.0625,0.125,-0.01708984,0.02050781,1.000977,15.99951,15.99951,15.12012
2973,0.125,0.0625,-0.125,-0.02099609,0.0009765625,0.9892578,15.99951,15.99951,15.12012
2975,-0.125,0.0625,0.0625,-0.02099609,0.008789063,0.9697266,15.99951,15.99951,15.12012
2977,-0.0625,-0.1875,0,-0.008789063,0.02050781,1.013184,15.99951,15.99951,15.1123
2979,0.1875,-0.0625,-0.0625,-0.01318359,0.02050781,1.020996,15.99951,15.99951,15.1123
2981,0,0,0,0.02197266,0.02441406,1.020996,15.99951,15.99951,15.1123
2983,0,0.0625,0.0625,-0.01318359,0.01269531,0.9931641,15.99951,15.99951,15.1123
2985,0,-0.125,0.0625,-0.004882813,-0.01806641,1.036621,15.99951,15.99951,15.10938
2988,0,-0.25,0,-0.004882813,0.02441406,0.9853516,15.99951,15.99951,15.10938
2990,0.0625,-0.125,-0.0625,-0.008789063,0.008789063,0.9736328,15.99951,15.99951,15.10938
2992,-0.0625,0,0.125,-0.02490234,-0.002441406,1.020996,15.99951,15.99951,15.10938
2994,0,0,-0.0625,0.006347656,-0.002441406,0.9892578,15.99951,15.99951,15.10938
2996,-0.25,0,-0.125,-0.01708984,0.01660156,1.036621,15.99951,15.99951,15.10938
2998,0,0.1875,0,-0.0009765625,0.0009765625,1.008789,15.99951,15.99951,15.10449
3000,-0.125,-0.125,0.0625,-0.03271484,-0.01806641,1.008789,15.99951,15.99951,15.10449
3002,-0.125,0.25,-0.125,-0.01708984,0.02050781,0.9892578,15.99951,15.99951,15.10449
3004,-0.1875,-0.1875,-0.125,-0.0009765625,0.01269531,1.01709,15.99951,15.99951,15.10449
3006,0.125,0,0.0625,0.01025391,-0.01416016,0.9697266,15.99951,15.99951,15.11475
3008,0.25,-0.125,-0.1875,-0.008789063,0.02050781,0.9814453,15.99951,15.99951,15.11475
3010,-0.25,-0.1875,0.0625,-0.01318359,0.004882813,0.9892578,15.99951,15.99951,15.11475
3012,0.0625,-0.0625,-0.0625,-0.004882813,0.01660156,0.9970703,15.99951,15.99951,15.10938
3014,0,-0.125,-0.0625,-0.004882813,0.004882813,1.000977,15.99951,15.99951,15.10938
3016,-0.3125,-0.0625,-0.125,-0.02490234,0.02050781,1.000977,15.99951,15.99951,15.10938
3018,0.0625,0,0,0.002441406,-0.006347656,0.9970703,15.99951,15.99951,15.1123
3021,0,-0.125,0,-0.01708984,0.008789063,1.013184,15.99951,15.99951,15.1123
3023,0,-0.125,0,-0.02490234,0.004882813,1.024902,15.99951,15.99951,15.1123
3025,-0.25,0,-0.0625,0.01025391,-0.002441406,0.9736328,15.99951,15.99951,15.1123
3027,0,-0.125,-0.0625,0.006347656,0.03222656,1.004883,15.99951,15.99951,15.11475
3029,-0.125,-0.1875,0.1875,0.006347656,0.008789063,1.000977,15.99951,15.99951,15.11475
3031,-0.25,-0.0625,0,0.01806641,0.01660156,0.9814453,15.99951,15.99951,15.11475
3033,0.125,0.125,0.0625,0.002441406,0.01269531,1.008789,15.99951,15.99951,15.11768
3035,-0.1875,0,0,-0.008789063,0.01660156,0.9931641,15.99951,15.99951,15.11768
3037,0,-0.0625,0,-0.01318359,0.03222656,1.008789,15.99951,15.99951,15.11768
3039,-0.0625,0,0.125,-0.008789063,0.008789063,0.9814453,15.99951,15.99951,15.11768
3041,0.0625,0,0.125,-0.01708984,0.008789063,0.9970703,15.99951,15.99951,15.11475
3043,0,-0.0625,0,-0.008789063,0.004882813,0.9970703,15.99951,15.99951,15.11475
3045,-0.0625,-0.125,0,-0.03271484,-0.002441406,1.008789,15.99951,15.99951,15.11475
3047,0,-0.375,0,-0.02880859,-0.002441406,0.9775391,15.99951,15.99951,15.10693
3049,-0.125,0,-0.0625,-0.02099609,0.02050781,0.9931641,15.99951,15.99951,15.10693
3051,-0.3125,0,0.125,-0.01708984,0.01269531,0.9853516,15.99951,15.99951,15.10693
3054,0.0625,-0.125,0,-0.0009765625,0.02050781,0.9892578,15.99951,15.99951,15.10449
3056,0,0,0.0625,0.01025391,0.01660156,0.9853516,15.99951,15.99951,15.10449
3058,-0.0625,0,0,-0.01318359,0.004882813,0.9892578,15.99951,15.99951,15.10449
3060,-0.1875,0,0.1875,0.002441406,0.02050781,1.013184,15.99951,15.99951,15.10449
3062,0,-0.0625,0,0.006347656,0.0009765625,0.9892578,15.99951,15.99951,15.12012
3064,0,-0.1875,0.0625,0.01416016,0.0009765625,1.000977,15.99951,15.99951,15.12012
3066,0.0625,-0.1875,-0.0625,0.006347656,0.01660156,0.9931641,15.99951,15.99951,15.12012
3068,-0.0625,-0.1875,0,-0.01708984,0.008789063,1.01709,15.99951,15.99951,15.10938
3070,-0.0625,0,0,-0.01708984,0.01660156,1.004883,15.99951,15.99951,15.10938
3072,0,-0.1875,0,-0.0009765625,0.02050781,0.9970703,15.99951,15.99951,15.10938
3074,0.125,-0.0625,0.0625,0.006347656,0.01660156,0.9970703,15.99951,15.99951,15.10938
3076,0,0,0,-0.008789063,0.01269531,0.9814453,15.99951,15.99951,15.12012
3078,0.125,0,0,-0.02099609,0.0009765625,1.008789,15.99951,15.99951,15.12012
3080,0,-0.125,-0.0625,-0.01708984,0.008789063,1.004883,15.99951,15.99951,15.12012
3082,-0.25,0,0.0625,-0.03271484,0.0009765625,1.004883,15.99951,15.99951,15.10693
3086,0,0,0.0625,-0.01318359,0.01269531,1.024902,15.99951,15.99951,15.10693
3089,0,0,-0.0625,0.002441406,-0.01806641,1.000977,15.99951,15.99951,15.10693
3091,0.0625,0.1875,-0.125,-0.01708984,0.004882813,0.9970703,15.99951,15.99951,15.10449
3093,0,-0.25,-0.0625,-0.0009765625,0.02050781,0.9970703,15.99951,15.99951,15.10449
